timestamp,gx,gy,gz,ax,ay,az
0.000000,0.050178,-0.169079,-0.022907,1.491498,1.573528,-9.652527
0.019695,0.041452,-0.152716,-0.009817,1.525627,1.591490,-9.541758
0.039868,-0.110174,-0.259618,-0.001091,1.653162,2.885400,-10.375823
0.059932,0.196350,-0.723221,0.097084,2.020798,5.942043,-15.360458
0.079949,1.900227,-1.572978,0.225802,4.531377,6.500083,-15.210170
0.100105,2.707442,-1.531526,0.664316,-1.005309,0.314346,-4.417614
0.120302,0.706858,-0.066541,1.014473,-0.395777,-0.949625,-0.620909
0.140325,0.113446,-0.619592,0.775581,-1.340013,-2.981799,-15.149097
0.160563,0.070904,-0.438514,0.043633,-0.180824,-2.818938,-8.930429
0.180579,0.000000,-0.282525,-0.143990,-0.838856,-1.109493,-11.094329
0.200635,-0.064359,-0.319613,-0.041452,-0.660427,0.622106,-9.320817
0.220709,-0.076358,-0.183260,-0.061087,-0.250878,2.649490,-10.310559
0.240880,0.124355,-0.158170,-0.097084,0.755629,0.463436,-9.553134
0.261014,0.039270,-0.157080,-0.115628,1.606459,-1.004112,-9.710607
0.281070,-0.035997,-0.164715,0.058905,1.521436,1.807042,-9.915381
0.302345,0.104720,-0.185441,0.063268,0.389789,1.165776,-9.744736
0.321271,0.027271,-0.159261,-0.057814,0.231718,-0.484393,-9.794432
0.341460,-0.020726,-0.172351,-0.003272,-0.009580,0.989143,-9.839339
0.363008,0.080721,-0.155989,-0.057814,0.407153,1.380729,-9.825568
0.382011,0.059996,-0.161443,-0.018544,1.311273,-0.207169,-9.748328
0.401677,-0.009817,-0.135263,-0.003272,1.362167,0.632285,-9.453741
0.421826,0.075267,-0.199622,0.015272,0.753832,1.130449,-9.507629
0.441887,0.058905,-0.189805,-0.011999,0.232916,-0.037123,-10.144704
0.461914,-0.004363,-0.157080,-0.027271,0.272433,0.804727,-9.750125
0.482066,0.066541,-0.158170,-0.041452,0.694556,1.132844,-9.519005
0.502176,0.052360,-0.184350,-0.010908,0.744252,0.141306,-9.969868
0.522284,0.002182,-0.143990,-0.033816,0.938249,0.643063,-9.717792
0.542352,0.046906,-0.161443,-0.035997,1.261577,1.091530,-9.348959
0.562464,0.040361,-0.209440,0.031634,0.411943,0.153880,-9.548344
0.582564,0.015272,-0.202895,-0.054542,0.232317,0.542472,-9.884844
0.602604,0.044724,-0.188714,-0.050178,0.592767,0.965193,-9.787846
0.623102,0.070904,-0.177805,-0.046906,0.740061,0.416135,-9.760902
0.643345,0.043633,-0.165806,-0.022907,1.183738,0.544268,-10.023157
0.662993,0.040361,-0.162534,-0.001091,0.711321,0.732277,-9.770482
0.683082,0.040361,-0.182169,-0.006545,0.547861,0.725691,-9.686058
0.703156,0.045815,-0.159261,0.025089,0.456251,0.533491,-9.423803
0.723251,0.041452,-0.196350,-0.018544,0.335303,0.426912,-9.782457
0.743674,0.056723,-0.163625,-0.073086,0.928669,0.616718,-9.675879
0.762806,0.051269,-0.195259,-0.044724,0.611329,0.529898,-10.344688
0.782954,0.083994,-0.187623,-0.038179,0.943039,0.574206,-9.231603
0.802951,0.037088,-0.158170,-0.054542,0.127535,0.419727,-9.979448
0.823115,0.025089,-0.184350,-0.018544,0.426313,1.037642,-9.713002
0.843138,0.038179,-0.133081,0.007636,0.336500,0.794548,-9.844728
0.863182,0.044724,-0.126536,-0.074176,0.813708,0.036524,-9.587862
0.883211,-0.037088,-0.195259,-0.014181,1.140628,0.251477,-9.789642
0.903452,0.026180,-0.173442,0.032725,0.316741,1.268762,-10.012978
0.923494,0.110174,-0.196350,-0.114537,0.308958,0.274828,-9.541159
0.943606,0.073086,-0.143990,-0.143990,0.832269,0.459245,-9.416019
0.964984,0.002182,-0.176715,0.074176,0.846041,1.246608,-10.280621
0.983853,0.001091,-0.112356,0.013090,0.261656,0.628094,-10.193802
1.005035,0.074176,-0.141808,-0.014181,0.570613,0.523911,-9.426797
1.024184,0.023998,-0.179987,0.069813,0.883163,0.249681,-9.674681
1.045926,0.019635,-0.175624,0.007636,0.414937,0.717308,-9.680669
1.064857,0.071995,-0.171260,-0.113446,0.533491,0.801733,-10.016570
1.086915,0.095993,-0.197440,-0.115628,1.344803,0.749042,-9.645941
1.105382,0.069813,-0.141808,-0.042542,1.387315,0.091609,-8.716075
1.126568,-0.029452,-0.191986,0.082903,0.861608,0.791554,-9.538764
1.144582,0.081812,-0.185441,0.154898,1.123863,1.230441,-9.018446
1.164656,0.023998,-0.119991,0.032725,0.209564,-0.340093,-9.709409
1.184729,-0.053451,-0.097084,-0.068722,0.687969,0.847837,-9.578881
1.204876,0.033816,-0.165806,0.051269,1.212479,1.283730,-9.638157
1.225179,0.143990,-0.220348,-0.286888,0.551453,-0.102387,-10.299183
1.246665,0.002182,-0.251982,-0.293433,1.773512,0.031734,-9.681268
1.265630,-0.245437,0.023998,0.142899,1.450184,1.930386,-9.518406
1.285332,0.131991,-0.226893,0.297797,0.125140,1.420845,-9.487870
1.305270,0.100356,-0.150535,0.071995,-0.476010,-0.144899,-10.015373
1.325347,0.003272,-0.095993,-0.094902,-0.019759,-0.442480,-8.869955
1.345670,0.015272,-0.175624,-0.085085,1.629811,0.911904,-10.487192
1.365635,0.026180,-0.263981,0.020726,1.289119,0.239502,-8.645422
1.385649,0.188714,-0.241074,-0.458149,0.867596,0.110171,-10.263257
1.405805,0.071995,-0.142899,-0.495237,1.181942,0.459844,-9.265133
1.425789,-0.028362,-0.190895,0.333794,2.294429,2.586022,-9.471105
1.445995,0.074176,-0.241074,0.582504,0.274230,1.472937,-8.522078
1.469369,-0.006545,-0.115628,0.161443,-0.285606,0.329914,-9.805210
1.486190,0.167988,-0.248709,-0.131991,0.415536,-1.448987,-9.996812
1.506267,-0.031634,-0.162534,-0.186532,1.625620,0.182021,-8.762179
1.526345,0.098175,-0.217075,-0.175624,0.859213,-0.431104,-9.992620
1.546339,0.183260,-0.311978,-0.671952,0.729283,0.774789,-10.211765
1.566537,-0.089448,0.052360,-0.321795,3.587141,2.545906,-9.073531
1.586525,-0.021817,-0.189805,0.428696,2.036365,2.544109,-9.983639
1.606641,-0.136354,-0.090539,0.611956,-0.437690,0.799338,-9.744137
1.626760,-0.041452,0.136354,0.229074,-1.777104,0.371827,-10.585388
1.646939,0.280344,-0.155989,-0.149444,-1.608854,-1.463357,-10.242900
1.667039,-0.001091,-0.129809,-0.419970,0.222737,-0.459245,-10.921289
1.687109,0.042542,-0.225802,-0.503964,0.586780,-0.761017,-9.219628
1.707186,-0.112356,-0.463603,-0.762491,1.729803,2.320774,-12.982203
1.727174,0.251982,-0.029452,-0.438514,3.520679,2.538122,-6.188132
1.747353,0.114537,-0.345793,0.569414,2.421964,2.324366,-10.550061
1.767493,-0.125446,-0.236710,0.658862,0.913700,2.342928,-7.741901
1.787560,0.183260,-0.059996,0.443968,-0.811313,0.591570,-10.131531
1.807616,0.284707,-0.127627,-0.313068,-0.646655,-2.730921,-10.639276
1.827691,0.160352,-0.273799,-0.571595,0.468226,-2.080074,-8.429271
1.847815,-0.115628,0.013090,-0.590139,0.171244,-0.575403,-9.871672
1.867943,-0.203985,-0.272708,-0.775581,1.645977,2.095043,-12.706776
1.888047,-0.201804,0.158170,-0.303251,3.730842,4.247567,-10.131531
1.908595,0.066541,-0.019635,0.452695,1.180146,3.168611,-9.924362
1.929952,0.013090,-0.268344,0.733038,0.524509,2.456691,-9.112451
1.948333,-0.078540,0.116719,0.459240,-0.863405,0.969384,-10.676398
1.968375,0.497419,-0.422152,0.021817,-1.841770,-1.913022,-12.405004
1.988456,0.086176,-0.234529,-0.494146,0.790356,-2.227368,-7.123986
2.008632,-0.143990,-0.042542,-0.546506,0.025746,-1.733994,-10.497371
2.028865,-0.275980,-0.088357,-0.763582,2.448309,1.896855,-12.117003
2.048809,-0.073086,-0.130900,-0.753764,3.112328,3.248844,-8.608898
2.068893,0.042542,0.160352,-0.008727,3.935616,4.620591,-8.920849
2.088896,-0.040361,-0.206167,0.641409,1.254391,2.417772,-9.181906
2.109079,-0.176715,-0.047997,0.673043,0.974773,2.241738,-7.918533
2.129130,0.523599,-0.262890,0.171260,-0.615520,-2.811154,-11.457175
2.149195,0.341430,-0.227984,-0.435241,-0.056283,-2.494413,-7.843689
2.169237,-0.173442,0.035997,-0.470148,0.146695,-1.572330,-9.851314
2.189461,-0.145080,-0.166897,-0.519235,3.259023,0.838856,-9.553134
2.209546,-0.267254,0.079631,-0.322886,3.075205,2.968028,-8.806487
2.229626,0.097084,0.085085,0.201804,3.112927,3.985911,-7.480844
2.249810,0.111265,-0.097084,0.523599,0.258063,3.510500,-11.093132
2.270189,-0.134172,0.097084,0.567232,0.299976,2.548301,-10.176438
2.289904,0.577049,-0.383972,0.495237,-0.454455,-0.317939,-12.745096
2.310006,0.150535,-0.356702,-0.299978,0.502954,-3.305127,-9.569301
2.330036,0.194168,-0.391608,-0.473421,-0.041314,-2.315385,-8.735834
2.350836,-0.508327,0.465785,-0.295615,1.965712,-0.618514,-7.346124
2.370205,-0.212712,0.125446,-0.594503,0.626298,4.330794,-13.506114
2.390231,0.099266,-0.081812,-0.284707,1.684896,3.652405,-7.957452
2.410432,0.109083,-0.153807,0.565050,3.154241,3.182382,-9.757908
2.430942,0.118901,-0.243255,0.766854,0.890349,2.488425,-8.280780
2.451900,0.129809,-0.112356,0.783217,0.578996,2.208807,-12.082275
2.470912,0.527962,-0.788671,0.042542,-0.092208,-3.277584,-10.200987
2.491556,0.165806,-0.163625,-0.457058,1.611249,-2.948868,-6.724017
2.510850,-0.677406,0.656680,-0.153807,-3.158432,-1.937571,-9.744736
2.530981,-0.397062,-0.213803,-0.249800,0.131726,-0.119751,-6.998247
2.551051,-0.131991,-0.041452,-0.863938,-0.302970,3.919449,-14.262341
2.571206,0.097084,-0.104720,-0.367610,2.656675,3.229085,-7.802375
2.592579,0.178896,-0.258527,0.534507,2.826123,4.263135,-10.969189
2.611403,-0.185441,-0.329431,0.682860,0.860411,3.113525,-9.041797
2.631469,0.310887,-0.556324,0.664316,0.440085,0.972977,-9.805809
2.651571,0.310887,-0.200713,-0.206167,-1.074765,-4.878655,-11.457773
2.671761,0.029452,-0.494146,-0.484329,1.196312,-2.068698,-6.397696
2.691780,-0.316341,0.367610,-0.224711,0.142504,-0.645458,-7.265292
2.711951,-0.119991,-0.111265,-0.906480,0.011975,1.288521,-12.646901
2.731926,0.095993,0.116719,-0.748310,3.184178,4.982239,-8.378377
2.752605,-0.021817,0.286888,0.236710,2.344125,3.606301,-9.386082
2.773243,0.023998,-0.329431,0.704677,1.297502,3.973337,-10.993738
2.794939,0.013090,-0.143990,0.837758,0.905317,2.713557,-10.859019
2.813411,0.339248,-0.693768,0.665407,0.315544,-0.772394,-8.698711
2.834082,0.166897,0.103629,-0.051269,-1.722019,-5.370831,-11.643986
2.855701,-0.111265,-0.150535,-0.434151,-2.118994,-2.119592,-11.163785
2.874121,-0.548688,0.082903,-0.214894,1.660347,-0.969384,-7.917935
2.892861,-0.781035,-0.014181,-0.382882,-1.837579,-0.404160,-8.294551
2.912971,-0.525780,-0.706858,-1.271909,3.744613,4.557123,-14.840140
2.932924,0.683951,-0.501782,-0.558505,4.082910,3.479963,-5.643265
2.953301,-0.681769,0.079631,-0.009817,0.422122,1.887275,-9.304651
2.974565,0.137445,-0.518145,0.681769,2.560276,3.932023,-10.035731
2.995244,-0.127627,-0.334885,0.885755,1.763932,2.201023,-9.334589
3.014456,0.666498,-0.541052,0.316341,-1.064586,-0.744252,-12.402609
3.033571,0.045815,0.248709,-0.543234,1.426234,-1.789080,-6.865922
3.053629,0.330522,-0.218166,-0.531235,-1.302891,-1.280737,-10.630893
3.073618,0.090539,-0.440696,-0.736311,0.520917,-1.231639,-7.757468
3.093656,-0.379609,0.171260,-0.719948,-0.497565,1.168770,-9.902807
3.115108,-0.563960,0.434151,-0.335976,0.892744,8.250244,-16.105908
3.135050,0.068722,-0.256345,0.881391,1.278342,2.851870,-5.558242
3.154059,-0.081812,-0.035997,1.073377,0.478405,4.782854,-11.507470
3.174113,0.217075,0.066541,1.066833,0.383203,2.193239,-9.314231
3.194173,0.506145,-0.875937,0.525780,0.239502,0.444875,-9.765692
3.214325,0.933751,-0.401426,-0.122173,0.423320,-1.793870,-11.279943
3.234249,0.807215,-1.227185,-0.699223,1.595682,-0.818498,-10.847043
3.254582,-0.040361,-0.037088,-0.039270,0.577200,-2.030977,-8.696915
3.274492,-0.126536,-0.030543,0.064359,-2.854863,-0.728685,-9.959689
3.295966,0.213803,-0.277071,-0.764672,-2.747686,-0.341889,-9.413026
3.314704,0.102538,0.077449,-1.325359,0.848436,0.662822,-7.297625
3.334718,-0.238892,0.509418,-0.723221,2.560276,3.623665,-10.597961
3.355102,-0.063268,-0.254164,0.212712,2.241140,2.420766,-10.941048
3.374969,-0.231256,0.158170,0.025089,-0.371228,1.697470,-10.869796
3.396399,-0.010908,-0.040361,-0.190895,2.018403,1.481918,-10.020762
3.416639,0.133081,-0.159261,0.209440,1.503474,2.014211,-8.188572
3.435414,-0.439605,0.405789,0.594503,0.282014,3.428470,-10.381811
3.457253,-0.583594,0.331613,1.122465,2.047143,2.624343,-11.721824
3.476630,0.308705,-0.683951,1.281726,0.471220,0.151485,-9.204659
3.496690,0.542143,-0.882482,0.332703,-0.775388,-0.979563,-8.786129
3.515757,0.442877,-0.030543,-0.673043,1.590892,-0.512534,-9.997410
3.535836,0.086176,-0.015272,-0.302160,3.317102,1.167572,-10.306368
3.555956,0.364337,-0.419970,0.338158,1.184337,1.386716,-11.687695
3.576075,0.426515,-0.620683,0.032725,-1.267564,0.602946,-10.137519
3.596194,0.593412,-0.785398,-0.783217,-3.109933,-1.656156,-9.668694
3.616188,0.332703,-0.291252,-0.459240,1.018482,-0.492177,-7.595804
3.636319,-0.477784,0.495237,-0.698132,-2.776426,-0.192799,-12.421769
3.656393,-0.783217,0.331613,-0.349066,-1.634601,1.323847,-11.121273
3.676504,-0.711222,0.161443,-0.223620,-1.184337,2.259102,-12.072695
3.696592,-0.685042,0.145080,0.258527,0.014370,2.145339,-10.739866
3.716709,-0.926115,0.599957,0.459240,0.246687,1.772913,-9.962084
3.736826,-1.283908,0.800670,0.559596,3.548221,2.423760,-9.206455
3.757013,-0.760309,0.050178,1.004655,3.236869,2.136956,-9.798624
3.776983,-0.445059,-0.123264,1.131192,0.895737,1.910028,-10.712922
3.797076,-0.208349,-0.356702,0.319613,0.842448,1.710643,-10.002799
3.817250,0.253073,-0.229074,-0.411243,3.451822,0.320933,-10.321337
3.837259,0.787580,-0.769036,-0.607593,3.271597,2.970423,-10.115964
3.859752,0.730857,-0.256345,-0.639227,3.654800,1.464554,-8.587343
3.877597,0.942478,-0.774490,-0.656680,2.212399,0.459844,-8.574769
3.897644,0.967567,-0.742856,-0.721039,-1.169967,2.395618,-11.075768
3.917634,0.652317,-0.651226,-0.353429,1.123264,2.967429,-7.943681
3.937751,0.649044,-0.892300,0.244346,-1.124462,1.454974,-10.829680
3.957796,0.229074,-0.301069,-0.042542,-2.300416,-2.231559,-8.715476
3.980284,-0.518145,0.151625,-0.227984,1.747167,0.065863,-4.958289
3.999614,-0.638136,-0.397062,-0.581413,-0.329914,1.271755,-11.126662
4.020633,-0.505055,0.040361,-0.727584,1.604064,0.211360,-9.105864
4.038803,-0.497419,0.134172,-0.253073,2.254911,0.561632,-12.316388
4.059247,-0.166897,-0.112356,-0.125446,2.565665,-0.958008,-10.098600
4.079195,0.039270,-0.721039,-0.665407,-0.490979,-0.306563,-9.116642
4.099195,0.053451,-0.212712,-1.243547,-0.752036,0.114961,-7.956854
4.118721,-1.230457,0.835576,-0.774490,0.090412,3.007546,-10.280621
4.138706,-1.096285,0.801761,0.375246,4.334387,5.446873,-12.686418
4.158935,-0.805033,0.413425,1.511891,1.050815,3.548221,-7.276668
4.178940,-1.205368,-0.223620,1.615520,-0.208367,3.531456,-8.858578
4.198966,-1.185733,0.767945,1.764964,1.495091,3.184777,-6.832991
4.219059,-0.750492,-0.151625,1.616611,3.053650,4.767885,-6.789282
4.239116,-0.054542,-1.478076,1.048288,0.405357,5.603148,-13.713882
4.261449,1.303543,-0.305433,0.824668,-0.004790,4.379892,-12.413386
4.280219,0.797397,-0.307614,-0.221439,2.297422,0.182021,-15.001205
4.300236,1.091922,-0.675224,-0.114537,5.076244,-0.818498,-11.937376
4.320292,1.149736,-0.632682,0.039270,2.502795,0.200583,-8.385562
4.340332,1.166098,-0.153807,-0.314159,-0.719105,1.488505,-9.414822
4.361089,1.407172,-0.410152,-0.325068,1.221460,3.616479,-8.927435
4.380829,1.414808,-1.254455,0.081812,0.756826,2.955454,-7.222780
4.400556,1.485712,-1.392991,0.044724,-1.572929,2.069896,-10.149494
4.421811,0.894481,0.079631,-0.399244,-2.581831,-1.446592,-10.641671
4.440153,0.416697,-0.207258,-0.098175,1.275348,-2.163301,-9.935140
4.460322,0.738492,-0.934842,0.105811,0.635878,-1.166375,-10.433903
4.480390,-0.172351,0.185441,-0.029452,0.881966,-2.018403,-6.408474
4.500384,-0.188714,0.037088,0.082903,0.483195,0.786165,-10.007589
4.520530,0.124355,-0.314159,-0.137445,-1.042432,-0.383802,-9.536369
4.540730,-0.091630,0.368701,-0.358883,-0.503553,-0.407153,-10.007589
4.561669,-0.244346,0.183260,-0.451604,-1.243015,-0.428110,-9.724977
4.580821,-0.402517,0.179987,-0.440696,-0.730481,-0.280816,-8.283774
4.601558,-0.589049,0.069813,-0.715585,1.277743,0.635279,-8.507708
4.621048,-0.785398,0.687223,-0.176715,2.361489,2.349514,-8.015532
4.641089,-1.202096,0.701404,0.434151,3.747008,1.399889,-10.486593
4.663276,-1.155190,0.314159,1.433352,3.190765,2.244133,-10.160272
4.682025,-1.846777,0.978475,2.358376,0.879571,4.272116,-8.866961
4.702004,-1.663517,0.745037,2.316925,-0.438289,3.403323,-12.873230
4.722182,-0.439605,0.850848,1.414808,-1.518442,7.222181,-13.747412
4.742336,1.724603,-0.321795,1.141009,3.123704,8.946595,-15.772401
4.762813,2.468550,-1.265364,1.409353,6.583310,2.179468,-3.575165
4.782516,2.516547,-1.624247,1.555525,2.044149,0.596959,-0.926873
4.802588,2.025673,-1.671153,0.391608,-2.973417,0.067659,-17.537531
4.822823,2.508911,-0.354520,-1.074468,3.203339,-2.286046,-11.781101
4.842764,2.909246,-1.679879,-1.472622,2.663262,-3.226091,-10.664423
4.862870,-1.209731,1.103921,0.357792,5.214556,0.037722,1.138832
4.883886,-0.142899,1.275181,0.143990,-0.329914,-0.288600,-5.248087
4.902967,0.746128,-0.342521,-0.944659,-1.146017,-1.193318,-12.758269
4.922612,-0.171260,0.363247,-0.921752,0.877176,-4.039799,-12.401411
4.942463,-0.726493,-0.752673,0.820305,2.078877,-2.297422,-13.411511
4.962616,-0.193077,-0.206167,0.939205,2.806364,-3.053051,-9.768686
4.982543,0.035997,-0.817032,0.290161,0.923280,-2.527344,-9.951306
5.003333,-0.654498,-0.831213,0.559596,2.179468,-1.937571,-7.792196
5.025221,-0.589049,-0.405789,1.023199,-0.452659,-2.700385,-12.913945
5.042924,-1.196641,-0.641409,1.389718,-0.256866,-2.108216,-9.424402
5.063213,-1.112647,-0.411243,1.368993,1.080154,-1.112487,-7.064110
5.083473,-1.171552,0.613047,1.771509,1.681304,0.694556,-6.758745
5.103134,-1.322087,0.283616,2.147846,-2.446512,1.106499,-11.317665
5.123183,-1.588250,0.411243,1.987494,-0.168250,0.417332,-5.530100
5.143337,-2.194752,0.063268,1.709332,0.911904,1.308279,-5.920488
5.163433,-2.836160,1.124647,1.359175,1.376537,2.526147,-7.273076
5.183536,-2.615812,0.382882,0.878119,2.703977,4.008664,-8.332872
5.203635,-2.652900,1.064651,1.058106,2.689008,6.737190,-16.919615
5.223821,-1.370083,0.025089,1.460622,7.880812,4.062552,-11.508069
5.243929,-0.105811,-1.276272,1.773691,1.804647,4.461921,-4.987029
5.264042,-0.873755,-1.411535,0.836667,-0.648452,3.708089,-10.516531
5.284173,-0.138536,-0.377427,0.063268,5.455854,4.164340,-11.523038
5.304237,0.601048,-0.835576,-0.425424,6.058202,2.396217,-10.974578
5.324271,1.456259,-0.633773,-0.637045,5.486391,4.012855,-9.640552
5.345136,1.823869,-0.968658,-0.676315,4.742139,2.717748,-5.286407
5.365385,1.865321,-1.843504,-0.643590,0.962199,2.858456,-7.271878
5.384799,1.592613,-1.804234,-0.522508,-0.628693,1.935176,-8.956774
5.405584,1.990766,-1.107193,-0.417788,0.157473,3.139272,-11.982283
5.427907,2.079123,-1.904591,-0.045815,-0.149090,1.942960,-6.812034
5.446921,1.508619,-1.169371,-0.070904,-4.750521,-1.029858,-11.317665
5.465579,0.256345,0.205076,0.147262,-3.942202,-5.933661,-8.847801
5.485770,-0.574868,-0.205076,0.125446,-2.026187,-1.210682,-8.712482
5.505681,-0.219257,-0.032725,-0.251982,-2.803370,0.194595,-10.890753
5.527211,-0.545415,0.217075,-0.201804,0.276026,-1.231639,-5.886958
5.547112,-1.003564,0.627228,-0.025089,1.172961,1.274749,-9.111253
5.565436,-1.115920,0.592321,0.621774,1.125659,2.238146,-10.587783
5.588855,-1.132282,0.611956,0.797397,2.075883,0.702339,-8.608898
5.606987,-1.107193,0.523599,0.893390,0.019160,3.710484,-12.188254
5.626746,-0.651226,0.236710,0.569414,-1.180745,4.182902,-10.138118
5.646588,0.289070,0.578140,0.519235,1.115480,4.927753,-8.177794
5.666951,0.445059,-0.499600,0.214894,4.049978,1.884282,-15.879578
5.686681,0.637045,-0.050178,0.163625,5.654641,0.793350,-11.296110
5.706834,0.705768,0.330522,0.440696,0.720302,2.146536,-6.847361
5.726883,0.716676,0.196350,0.091630,0.527503,0.726290,-6.238427
5.746895,1.161735,-0.771217,-0.341430,0.762814,3.708688,-13.209730
5.767110,1.382083,-0.344703,0.057814,2.503394,3.193160,-9.930948
5.788883,1.239184,-0.062177,0.332703,1.164578,1.186732,-7.065308
5.806776,1.641700,-0.835576,-0.333794,0.042512,-0.917292,-8.426277
5.827926,2.392192,-1.352630,-1.389718,2.153123,-1.243015,-10.602153
5.847461,-0.640318,1.119192,-0.118901,4.643943,-2.362687,-6.664741
5.867563,0.979566,-0.794125,-0.183260,0.483794,-1.542393,-5.584587
5.887686,-0.431969,0.154898,-0.391608,1.292113,-0.405357,-5.380411
5.907733,0.037088,-0.436332,-0.860665,-2.795587,-1.117277,-10.653646
5.928930,-0.691587,-0.290161,-0.455967,3.655997,-1.279539,-4.409830
5.947207,-1.023199,0.206167,0.073086,1.304687,-2.054927,-9.279503
5.968734,-1.112647,-0.280344,-0.032725,2.365082,-1.628613,-9.323811
5.987528,-1.371174,-0.085085,-0.052360,0.582589,-1.252595,-11.981085
6.007490,-1.280635,0.133081,-0.034907,1.089734,0.404758,-12.509187
6.027685,-1.387537,-0.291252,1.481348,6.047424,1.505270,-9.574689
6.048926,-1.662426,0.402517,2.488185,1.672921,0.474813,-7.892787
6.069766,-1.663517,-0.331613,2.993240,1.802252,0.242496,-6.481522
6.089442,-2.057307,0.146171,3.270311,-1.030457,3.237468,-7.243138
6.109679,-2.986695,1.148645,2.784891,0.998124,1.077160,-1.114283
6.128147,-2.467459,-0.965385,1.881683,-1.716630,13.729449,-18.671572
6.148194,0.111265,-0.910844,2.198024,8.839418,12.040362,-17.874630
6.168381,-2.689989,-1.220640,1.724603,-0.122745,4.033213,-8.980724
6.188468,-0.548688,-0.321795,2.761984,3.623665,4.315226,-10.795551
6.208519,-1.153008,-1.031926,2.054034,-0.889151,5.459447,-17.287850
6.228576,-1.472622,-1.736603,1.084286,-3.745811,-0.563428,-11.827804
6.248691,0.374155,-0.357792,0.614138,2.131567,0.106578,-6.283334
6.268852,1.216276,-1.250092,-0.500691,3.026107,4.451144,-12.816947
6.289019,3.536473,-0.833395,-1.764964,2.714755,6.970106,-13.127701
6.308956,3.664101,-1.239184,-1.799871,3.770958,2.056723,-4.921765
6.329132,3.303036,-1.696242,-1.691879,1.300496,1.037043,-6.407276
6.352685,2.741258,-1.163916,-1.728967,0.769999,1.120270,-7.228169
6.370796,2.016946,-0.737402,-0.959931,4.009861,3.205734,-6.849157
6.390844,0.815941,-0.537780,0.379609,-0.020956,-1.970502,-11.203901
6.410638,0.644681,-0.898845,0.573777,0.107177,-3.237468,-6.070776
6.430369,-0.196350,0.536689,0.380700,-1.919009,-4.947512,-6.855145
6.450297,-0.679588,0.509418,0.236710,-3.576363,-1.405278,-8.648416
6.470531,-1.078832,0.208349,0.070904,-2.837499,-2.483036,-9.744137
6.490552,-1.223912,0.590139,-0.155989,1.526226,-0.705333,-7.664062
6.510691,-1.496620,0.676315,0.434151,0.458646,0.044308,-9.515413
6.530804,-1.467167,1.466077,1.048288,0.523312,4.870272,-12.377461
6.550862,-3.205952,1.759510,1.750783,-1.835184,4.273314,-8.843610
6.571195,-2.679080,2.178389,1.728967,-0.431104,6.513256,-10.954221
6.591038,0.346884,-0.942478,1.781327,4.369713,9.601035,-19.102077
6.611099,2.249293,-0.178896,3.171045,3.017126,6.932983,-6.037844
6.632313,1.438806,-0.334885,3.003057,5.287604,5.489385,-8.959169
6.652418,3.009602,-1.627520,2.964878,2.674638,2.669249,-4.605024
6.674748,2.189297,-2.839433,2.409645,0.898731,-0.082628,0.920286
6.692204,3.403392,-1.866411,1.306815,-0.576002,-0.433499,-8.172405
6.711945,1.854412,-0.507236,-0.666498,-15.292798,-10.406959,-19.620000
6.733603,-0.209440,1.159553,-0.274889,2.580634,-0.809517,-4.693041
6.751849,0.441786,1.118102,-0.161443,-8.198152,-3.987708,-11.933185
6.772062,-0.070904,0.743947,-0.367610,-0.109572,-0.941841,-7.158713
6.791994,0.293433,-0.338158,-0.086176,2.839894,-2.239343,-8.654403
6.812233,-0.553051,-0.001091,0.290161,2.806963,-2.524351,-7.873028
6.832141,-0.210530,-0.865029,0.356702,2.192042,-2.500400,-10.795551
6.853412,-0.666498,-0.237801,-0.015272,3.887715,-2.431544,-10.629097
6.871863,-0.094902,-0.705768,0.446150,4.532574,-1.151406,-10.562036
6.894046,-0.509418,-0.478875,1.459532,3.544629,0.094005,-7.390432
6.913145,-0.533416,-0.544325,2.168572,-1.056802,0.504750,-10.965597
6.933620,-0.518145,-0.309796,2.452188,-1.420247,0.313149,-8.795709
6.952244,-0.457058,-0.016362,2.310380,-1.433419,-1.327440,-8.653206
6.972208,-0.809396,0.091630,1.978767,-0.128134,-1.565145,-7.489226
6.992355,-1.317724,0.757037,1.542435,-2.323768,-1.874103,-8.692723
7.013156,-1.703878,0.245437,1.253365,-0.404160,-0.193997,-8.682545
7.034271,-2.272201,-0.811578,0.859575,0.160466,1.243614,-9.202863
7.052743,-2.213296,-0.244346,0.812669,2.815345,1.496887,-3.316503
7.073848,-2.651810,0.365428,0.987202,2.339335,-0.287402,-6.904243
7.092797,-3.436117,2.807798,1.401718,3.980522,9.293873,-15.908318
7.112931,-2.859067,-0.434151,1.638428,4.929549,9.438772,-19.620000
7.133021,-0.056723,-1.138827,2.525273,-0.812510,4.719985,-7.336544
7.153070,-1.250092,-1.445351,1.499892,-0.890349,1.700464,-11.057206
7.173245,-0.502873,0.006545,0.642499,-0.169448,1.563349,-10.607542
7.193310,0.097084,0.284707,-0.157080,2.110611,4.737947,-13.266013
7.213389,2.385647,0.068722,-1.071196,5.451663,9.794432,-12.375665
7.233444,3.131775,-0.374155,-0.986111,6.146818,4.589456,-5.705535
7.257571,2.967060,-1.992948,-0.723221,3.593727,0.709525,-2.911745
7.273880,2.821979,-2.292926,-0.620683,0.011975,0.643661,-8.976533
7.295208,2.591814,-1.918771,-1.255546,-0.891546,1.196312,-11.334430
7.314033,2.271110,-1.310088,-0.594503,2.803969,3.502117,-8.750204
7.333932,1.433352,-1.223912,0.580322,0.364043,-3.397934,-11.175760
7.353934,-0.281434,-0.823577,0.825759,0.335303,-2.591411,-3.372786
7.374305,0.177805,0.471239,0.178896,-3.885320,-2.715952,-8.464598
7.395449,-0.373064,-0.114537,-0.397062,-4.339177,-3.026107,-10.084828
7.414235,-0.548688,-0.080721,-0.375246,-2.927313,-1.329236,-8.861572
7.434347,-0.950114,1.105012,-0.145080,-0.517324,3.833828,-12.342134
7.454584,-1.070105,0.718857,0.763582,1.794468,1.642385,-8.911269
7.474584,-0.359974,0.949023,0.910844,-0.220941,1.442401,-10.396780
7.494712,-0.569414,0.155989,0.512690,-0.792153,0.773591,-10.518926
7.514778,-0.307614,0.330522,-0.174533,2.689607,0.011975,-9.591454
7.534818,-0.487601,0.230165,-0.043633,2.412383,1.604064,-10.275831
7.554874,-0.845394,0.952295,0.357792,1.376537,4.118835,-11.837983
7.575035,-0.297797,0.838849,0.438514,1.279539,7.343130,-13.167817
7.598932,1.159553,0.109083,0.592321,1.777104,3.572172,-8.352631
7.615386,0.701404,0.523599,0.559596,1.130449,3.752996,-8.558004
7.636928,0.846485,0.451604,0.511600,3.256029,2.593207,-8.832832
7.657041,1.028653,-1.122465,0.418879,1.989064,-1.196312,-4.548142
7.676136,1.331904,-1.793326,-0.104720,4.933141,-2.638114,-11.999647
7.696855,2.074760,-2.299471,-0.412334,4.969666,-2.251318,-12.361893
7.715782,2.495821,-1.776963,-0.854121,-4.736750,-3.773353,-8.332872
7.735775,-0.905390,0.463603,-0.197440,-0.634680,-0.249681,-2.154320
7.757423,-0.831213,-0.515963,-0.782126,-1.359772,-0.683179,-7.579039
7.777178,-1.734421,-0.068722,-1.239184,1.771716,-0.864003,-6.866521
7.796619,-1.057015,-0.515963,-0.556324,1.265169,-2.189647,-15.971188
7.816334,-0.427606,-1.064651,0.286888,2.486629,-0.278421,-15.925682
7.836423,-0.632682,-0.427606,0.843212,2.651885,2.278861,-7.972421
7.856800,-0.870483,-0.605411,1.792235,3.132087,0.874182,-9.364526
7.876675,-0.841031,-0.827941,2.336560,1.323847,-0.153880,-10.145303
7.896682,-0.580322,-0.014181,2.859067,-0.777783,1.617237,-8.256830
7.916668,-0.404698,0.110174,3.129594,-0.623304,1.608256,-7.938292
7.938795,-1.799871,1.239184,2.838342,-0.971180,-2.562072,-3.687731
7.957418,-3.131775,-0.549779,2.214386,6.108497,-0.571811,-1.734593
7.977497,-2.939789,-0.201804,1.641700,-1.456172,14.826967,-19.620000
7.997591,-0.639227,0.271617,1.915499,2.725532,7.635921,-14.398857
8.020311,-1.423534,-0.283616,1.679879,0.643661,1.983675,-7.056326
8.038455,-2.550362,0.682860,1.691879,5.023553,1.813629,-9.125623
8.057417,-1.082104,-1.605703,1.660244,4.618196,3.590134,-12.671450
8.077347,0.483238,-1.603521,1.565342,5.106780,4.539161,-11.179352
8.098672,1.700605,-1.179188,1.305724,2.228566,7.019203,-12.952266
8.119197,2.640901,-1.736603,0.586867,0.001796,2.730921,-8.346643
8.139259,2.194752,-1.817324,-0.262890,-0.738864,0.101190,-6.493497
8.159346,2.326742,-1.293725,-1.085377,0.434097,0.225132,-5.392386
8.179722,2.583087,-1.641700,-1.802052,-1.487906,0.616718,-10.553654
8.199238,2.733622,-1.805325,-2.333287,0.726290,0.563428,-9.199270
8.218070,-1.364629,0.333794,-0.081812,0.653242,0.877176,-6.303093
8.238192,0.037088,0.296706,-0.606502,1.442401,-0.274828,-3.363805
8.258330,-0.655589,1.572978,0.007636,-3.584745,-0.704136,-17.177679
8.279016,0.226893,0.097084,0.133081,-2.051334,-0.836461,-9.858499
8.298459,-0.115628,0.877028,0.451604,0.048499,-0.552052,-7.032975
8.318424,-0.246528,0.903208,0.811578,1.228645,1.700464,-10.485396
8.338620,-0.167988,0.627228,1.250092,1.656156,1.842369,-9.085507
8.358675,-0.483238,1.374447,1.497711,0.252675,2.532733,-9.052575
8.380744,-1.447532,0.593412,0.787580,-0.376617,2.775828,-13.061239
8.398936,-0.263981,1.131192,0.782126,2.467469,2.919529,-7.453900
8.419061,0.270526,-0.080721,0.533416,3.063230,2.659070,-13.804294
8.439089,0.764672,0.725402,0.399244,2.469864,4.822971,-12.436738
8.459223,1.662426,0.275980,0.421061,4.251758,3.886518,-9.220226
8.480868,2.336560,-0.758127,0.848666,5.023553,1.346001,-4.054768
8.500813,1.798780,-2.302744,0.351248,-1.188528,2.059717,-6.858138
8.520190,1.995130,-1.543526,-0.606502,0.022753,-0.743654,-11.306288
8.541262,-0.436332,1.859866,-0.513781,-4.790638,-9.670490,-15.136523
8.559674,1.090831,0.166897,-0.746128,-8.062234,-2.605182,-13.889916
8.582646,0.284707,1.433352,-1.181370,0.174238,-0.214953,-5.348079
8.601862,1.157371,0.203985,-1.578432,-1.634601,-0.304766,-12.379257
8.620911,1.328632,-0.255254,-1.922044,5.349276,-1.901047,-10.239906
8.640880,1.065742,-0.738492,-0.878119,2.772834,-2.569257,-8.764574
8.661771,-0.356702,0.059996,-0.427606,4.585864,-2.696792,-5.397775
8.681754,-1.002473,-0.521417,0.260709,3.619473,-2.075284,-7.658674
8.701568,-1.411535,0.014181,0.700313,2.384242,1.077160,-14.280903
8.722365,-0.974112,-0.925025,1.497711,3.528463,1.161584,-9.327404
8.740535,-0.707949,-0.767945,1.920953,-1.372945,-0.030536,-11.485316
8.760705,-0.626137,0.069813,1.685334,1.347797,-2.429149,-11.195519
8.780762,-0.935933,-0.592321,1.588250,2.426155,-3.299738,-4.181105
8.800959,-1.584977,-0.523599,1.452987,-0.147892,-1.216670,-9.164542
8.821043,-1.618793,-0.491965,1.012291,-1.787882,-0.907712,-10.533296
8.841746,-1.659154,0.462512,0.726493,-0.599952,2.095642,-7.773036
8.861910,-1.895864,0.932660,0.237801,-1.541794,2.268083,-9.624985
8.883101,-0.753764,-0.211621,-0.038179,2.307003,4.685856,-11.071577
8.902025,0.117810,-0.063268,0.393790,4.730164,3.453019,-9.189690
8.922148,-0.559596,-0.711222,0.317432,1.287323,0.193398,-3.136278
8.942205,-1.584977,0.304342,-0.020726,2.228566,0.085023,-10.580598
8.962441,-0.878119,-0.004363,0.062177,1.918411,6.364166,-16.571739
8.982412,-0.385063,-0.749401,0.239983,0.886157,1.662144,-6.982679
9.002633,-0.638136,-0.292343,0.635954,1.490900,2.497407,-8.340057
9.022034,-1.070105,-0.550870,1.070105,1.825604,2.950664,-8.218510
9.041984,-0.710131,-0.559596,0.963204,1.235231,5.957012,-7.929311
9.062761,0.041452,-1.276272,0.907571,-0.219743,7.876022,-11.361374
9.086203,0.563960,-1.307906,0.878119,2.557881,2.267485,-8.150850
9.102342,0.538870,-1.070105,0.631591,-1.080753,0.086819,-10.500963
9.122366,1.006837,-0.637045,-0.524690,0.419727,0.815504,-14.906602
9.142454,1.268636,-0.770127,-0.309796,1.389710,1.842968,-6.346203
9.162524,1.421353,-1.144281,0.076358,0.059277,3.470383,-11.496094
9.182903,1.724603,-1.519527,0.099266,0.314945,0.932860,-9.607022
9.205605,0.209440,0.897754,-0.032725,-5.468428,-4.061953,-11.866723
9.222916,0.460331,0.025089,-0.135263,-3.357219,0.871188,-8.381371
9.243689,0.174533,0.039270,-0.149444,-4.363127,-0.908311,-11.000325
9.264330,0.109083,0.747219,-0.210530,-1.454376,2.415976,-8.853190
9.287497,0.059996,0.723221,-0.277071,0.599952,1.813629,-7.398814
9.305104,0.757037,0.355611,-0.503964,2.269880,3.606899,-11.596685
9.323460,0.423242,0.578140,-0.088357,3.248245,2.122586,-8.013735
9.343547,0.798488,0.465785,0.457058,1.339415,3.181185,-11.159594
9.363600,0.861756,0.075267,0.550870,0.087418,2.164499,-10.908116
9.383865,1.184642,0.248709,0.417788,0.475411,3.275189,-9.596245
9.403848,1.178097,0.148353,0.481056,0.976569,1.974694,-7.095245
9.423994,1.111557,-0.110174,0.200713,0.174238,-1.431024,-10.344089
9.443854,0.788671,0.394881,-0.621774,3.422483,-3.661985,-8.472980
9.466683,0.765763,0.014181,-0.354520,0.996328,-4.396058,-8.053253
9.488236,0.272708,0.331613,-0.530144,-1.792672,-2.533931,-8.687933
9.505362,0.479966,0.145080,-1.282817,-0.923280,-1.122067,-13.013937
9.525017,0.679588,-0.073086,-1.498801,0.778381,-0.544268,-7.899972
9.545236,0.505055,-0.137445,-1.966768,-0.051493,-0.434097,-6.594686
9.565273,-0.116719,0.162534,-2.194752,1.254391,-0.802332,-6.249205
9.586068,0.136354,-0.728675,-2.066034,3.617078,-1.995650,-9.750125
9.605408,-0.913025,-0.212712,-1.137737,5.038522,-2.446512,-11.873908
9.625576,-0.690496,-0.375246,-0.303251,5.287006,-1.225052,-9.961485
9.645682,-1.206459,0.117810,0.116719,3.866160,0.385598,-8.595126
9.665678,-1.218458,0.057814,1.185733,5.899532,1.514850,-9.984836
9.685812,-1.180279,-0.971930,2.881975,3.763773,0.502355,-9.923165
9.705955,-0.955568,-1.347176,3.431754,2.326163,0.047900,-10.685978
9.726069,-0.866120,-0.893390,3.431754,0.244891,-0.174238,-9.850715
9.746112,-1.111557,0.073086,2.669263,-3.603307,1.716630,-8.531658
9.766149,-1.746420,0.174533,1.736603,-2.121987,-0.031135,-3.926635
9.786566,-2.671445,0.134172,0.459240,-2.614763,2.256707,-10.446476
9.807684,-1.882774,0.166897,0.074176,1.736988,4.243376,-12.082874
9.826390,-0.458149,-0.650135,0.436332,4.803810,5.813311,-9.387878
9.847049,-0.777762,-0.621774,0.658862,3.495531,8.601713,-15.827487
9.865976,-0.531235,0.294524,1.641700,6.215076,4.095483,-10.443483
9.886021,-0.344703,-0.426515,1.443169,1.420845,1.944157,-3.275788
9.906097,0.073086,-0.736311,0.775581,-0.450264,1.914219,-10.083032
9.926305,1.009018,-0.258527,-0.754855,0.683778,-1.114882,-12.369078
9.946659,0.861756,-0.179987,-1.154099,3.036885,-0.044907,-7.483239
9.966722,0.749401,-0.301069,-0.434151,2.677632,6.610853,-13.473781
9.987164,1.084286,-0.249800,0.520326,1.800456,2.361489,-8.019124
10.007120,0.920661,-0.340339,0.128718,-1.376537,0.841849,-8.223898
10.028068,0.581413,-0.392699,-0.225802,-0.080832,2.563868,-7.601193
10.047004,0.440696,-0.422152,-0.226893,-0.734672,2.131567,-11.961925
10.066940,0.491965,-0.818123,-0.222529,0.138911,2.935695,-10.632689
10.086942,0.249800,-0.378518,0.239983,2.534529,0.927471,-7.425758
10.107806,0.309796,-0.365428,0.329431,1.340612,-0.318538,-11.581716
10.127239,0.581413,-0.531235,-0.083994,0.961002,0.298180,-8.862770
10.147221,0.460331,-0.134172,-0.127627,1.095721,1.489103,-8.387957
10.167337,0.709040,-0.527962,-0.224711,0.425715,0.207169,-10.138716
10.187430,0.916298,-0.832304,-0.679588,-0.841251,1.676514,-9.972263
10.210367,-0.006545,-0.099266,-0.033816,2.269880,0.552651,-7.888596
10.227727,0.302160,-0.302160,0.001091,-0.734073,1.813629,-11.509266
10.247692,0.237801,-0.094902,-0.122173,-0.961002,-1.351390,-9.230405
10.268070,-0.115628,0.238892,0.083994,1.040636,2.833907,-9.119636
10.288442,0.207258,-0.262890,0.136354,-0.674797,0.365839,-9.808802
10.308217,0.007636,0.463603,-0.514872,-0.528102,0.621508,-9.737551
10.328127,0.008727,0.325068,-0.364337,2.645299,2.080673,-8.560399
10.348838,0.128718,-0.149444,0.026180,2.249522,0.401166,-9.951306
10.370524,0.103629,-0.015272,-0.260709,1.395698,0.401166,-10.278226
10.388661,0.295615,-0.107992,-0.241074,2.732717,0.028141,-9.340576
10.408559,0.392699,0.410152,-0.806124,-1.571732,-0.149689,-12.521761
10.429381,0.368701,-0.174533,-1.089740,-1.046624,-0.253872,-10.893148
10.448791,-0.345793,-0.211621,-0.820305,0.805325,-0.134121,-6.419850
10.468936,-0.551960,0.305433,-0.369792,0.971779,0.349074,-7.610773
10.488944,-0.873755,0.253073,0.298888,2.779420,2.539319,-12.063713
10.510284,-1.017745,0.143990,1.070105,3.241060,3.672164,-9.462722
10.529178,-1.365720,0.449422,1.947133,2.362687,2.747087,-7.565867
10.549320,-1.355903,0.473421,2.298380,1.298699,1.525029,-10.250085
10.569398,-0.976294,0.535598,1.758419,-1.360371,2.721940,-12.675042
10.589424,-0.181078,0.256345,0.938114,2.305805,6.973099,-12.703782
10.609490,2.174026,-0.499600,1.263182,6.762936,6.235433,-12.236155
10.629582,1.548980,-2.175117,1.159553,5.477410,-0.076042,0.085023
10.649621,1.435533,-0.227984,0.810487,-1.011896,-0.049098,-5.997728
10.669852,0.954477,-1.483530,-0.251982,3.113525,-1.273552,-13.165422
10.689915,2.218750,-2.409645,-0.919570,0.899330,-0.347278,-8.426876
10.710056,3.395756,-1.185733,-1.883865,-0.887953,-0.119751,-6.245013
10.730071,-1.367902,1.865321,-0.556324,0.362247,-0.492775,-4.236191
10.750246,-0.224711,0.374155,-0.664316,3.942801,-1.235830,-6.953939
10.770170,0.303251,-0.750492,-0.704677,1.993255,-2.423161,-12.339739
10.791704,-0.993747,-0.078540,0.367610,5.107379,-2.567461,-11.699072
10.811467,-0.029452,-0.271617,0.770127,1.951342,-2.330354,-12.569063
10.833250,-0.221439,-0.677406,0.739583,1.514251,-1.165177,-8.168813
10.852300,-0.458149,-0.553051,1.132282,1.016087,-1.028062,-8.569380
10.870878,-0.810487,-1.098467,2.178389,4.100273,0.595761,-10.657837
10.890751,-0.472330,-1.438806,2.768529,-0.155078,-0.043709,-9.277707
10.911508,-0.231256,-0.374155,2.712896,-1.168171,-0.302371,-7.753876
10.931162,-0.621774,0.305433,2.266746,-1.760339,0.858615,-6.583310
10.951176,-1.610066,-0.248709,1.348267,-3.114723,0.742456,-6.304290
10.971145,-2.384556,0.713403,0.663225,-2.076482,0.855621,-9.851913
10.993266,-1.922044,0.602139,0.546506,1.181343,0.834664,-11.704460
11.012035,-1.671153,0.962113,0.499600,0.080832,0.614921,-10.815908
11.032213,-1.979858,1.363538,0.170170,3.365601,1.069975,-6.943162
11.052264,-1.949315,0.442877,0.089448,4.482878,2.907554,-6.107899
11.072366,-1.886046,-0.091630,0.482147,4.825964,4.957092,-11.667936
11.092553,-1.971131,0.643590,1.018836,3.914659,4.214037,-10.524913
11.112535,-0.891209,-1.808597,0.314159,1.594484,11.143427,-11.088342
11.132739,-0.055632,-0.561778,0.881391,3.270998,7.465276,-9.810599
11.152796,-0.765763,-0.677406,0.666498,3.043471,3.053650,-12.617562
11.172893,0.058905,-0.517054,0.385063,1.587898,1.013093,-7.129973
11.193040,0.596684,-1.438806,-0.515963,0.880768,4.049978,-9.968071
11.213257,1.283908,-1.499892,-1.003564,4.221222,2.733915,-7.679630
11.233324,1.147554,-0.388336,-0.150535,3.730243,6.803652,-13.595927
11.253505,2.282018,-1.583886,0.047997,-1.289718,2.647694,-9.116642
11.273431,1.883865,-1.201005,-0.363247,-0.653840,2.694397,-7.559280
11.294262,1.718058,-0.931569,-0.344703,1.414259,2.009421,-7.522756
11.313766,1.780236,-1.009018,0.405789,1.367556,2.255510,-9.156758
11.333849,1.880592,-1.583886,0.351248,-1.548979,1.946552,-11.685300
11.353788,1.557706,-0.258527,-0.191986,-3.721262,-0.587977,-11.226654
11.374031,0.467966,0.639227,-0.123264,-5.051096,-3.444637,-10.394385
11.395034,0.345793,0.117810,-0.191986,-2.223776,-1.369951,-6.325845
11.414543,-0.002182,0.185441,-0.302160,-3.582949,-1.615441,-10.391391
11.434248,-0.031634,1.002473,-0.076358,0.085622,1.711840,-9.226214
11.454424,0.345793,0.942478,0.556324,2.375859,1.362766,-8.986712
11.474568,-0.481056,0.089448,0.033816,-0.700543,3.072211,-14.531781
11.494514,0.171260,0.898845,0.001091,2.659070,3.332670,-9.339977
11.516566,0.213803,0.885755,0.477784,1.337618,4.354744,-10.788365
11.535577,0.350157,0.486511,0.763582,-0.553848,4.969666,-11.975696
11.555871,1.006837,0.215984,0.331613,0.762814,0.062869,-5.865403
11.574830,1.252274,-0.643590,-0.429787,1.532214,0.021555,-6.130052
11.595537,1.584977,-1.065742,-0.738492,4.999005,-1.087938,-10.472223
11.616787,2.131483,-0.956659,-0.820305,2.569856,-1.665736,-10.809921
11.634585,0.266163,1.144281,-0.855211,0.964594,0.296384,-7.321575
11.655008,1.925316,-0.373064,-1.635155,-3.066823,-1.244811,-10.350676
11.675770,0.634864,0.347975,-1.492257,1.720223,-1.044229,-5.848638
11.694813,1.210822,-0.443968,-1.328632,2.472858,-2.416575,-11.186537
11.714969,0.380700,-0.416697,-0.861756,4.270320,-3.089575,-9.854308
11.735098,-0.489783,-1.186824,-0.374155,3.746409,-2.187252,-4.246968
11.755063,-1.163916,0.000000,-0.163625,3.342250,-2.148931,-7.906558
11.776493,-1.198823,-0.541052,0.382882,1.946552,-0.220342,-15.417938
11.796163,-0.867210,-0.355611,1.075559,4.446354,0.680186,-10.970986
11.816196,-0.584685,-1.213004,1.823869,2.760260,1.459764,-9.905801
11.836211,-0.278162,-1.109375,2.892883,2.044748,0.158071,-10.405162
11.856291,-0.529053,-0.233438,2.911427,1.236429,-2.205214,-7.978409
11.876317,-1.191187,-0.983929,2.498002,0.419727,-1.628015,-4.803810
11.896435,-1.234820,-0.505055,1.891501,-1.631008,-0.292192,-7.285051
11.916721,-2.155482,0.218166,0.873755,-4.011059,2.753075,-11.290721
11.937328,-1.530436,1.215185,0.275980,-0.973575,0.782573,-7.692803
11.956801,-1.510801,-0.148353,0.016362,-1.633403,0.022753,-7.625143
11.976960,-2.075851,1.151917,-0.045815,-0.823288,1.790277,-11.087144
11.997004,-2.580906,0.918480,0.142899,5.685776,1.509461,-7.621551
12.017104,-1.514073,0.565050,0.778853,4.902006,5.300777,-11.543994
12.037137,-1.284999,0.421061,0.754855,3.469186,2.807562,-11.915821
