timestamp,gx,gy,gz,ax,ay,az
0.000000,0.003840,0.046600,0.001222,-0.000000,-0.000000,9.810000
0.033836,0.001658,0.004058,0.004494,-0.000000,-0.000000,9.810000
0.045957,-0.026704,0.008421,0.008858,-0.000000,-0.000000,9.810000
0.061027,0.347451,-0.293739,0.014312,-0.000000,-0.000000,9.810000
0.081134,2.000000,-1.289667,0.295746,-0.000000,-0.000000,9.810000
0.101227,0.475079,0.947627,0.795347,-0.000000,-0.000000,9.810000
0.121323,0.853597,-0.475908,0.387376,-0.000000,-0.000000,9.810000
0.141498,0.159829,-0.203200,0.008858,-0.000000,-0.000000,9.810000
0.161557,-0.028885,0.020420,-0.110043,-0.000000,-0.000000,9.810000
0.183472,-0.142332,-0.181383,-0.041321,-0.000000,-0.000000,9.810000
0.202473,-0.083427,-0.048302,-0.093681,-0.000000,-0.000000,9.810000
0.222594,0.061654,0.029147,-0.107861,-0.000000,-0.000000,9.810000
0.243629,0.022384,-0.036303,0.043764,-0.000000,-0.000000,9.810000
0.263919,-0.077973,0.030238,0.008858,-0.000000,-0.000000,9.810000
0.282741,0.011476,-0.011214,-0.002051,-0.000000,-0.000000,9.810000
0.302233,0.030020,0.010603,0.004494,-0.000000,-0.000000,9.810000
0.322573,-0.008159,-0.040666,-0.031503,-0.000000,-0.000000,9.810000
0.342590,0.020202,-0.038485,0.008858,-0.000000,-0.000000,9.810000
0.362636,0.007112,0.106596,0.005585,-0.000000,-0.000000,9.810000
0.382578,-0.039794,0.025875,-0.016232,-0.000000,-0.000000,9.810000
0.402703,0.021293,0.017148,0.023038,-0.000000,-0.000000,9.810000
0.422771,0.040928,-0.046120,-0.027140,-0.000000,-0.000000,9.810000
0.442948,-0.052883,-0.082118,-0.011868,-0.000000,-0.000000,9.810000
0.462942,0.018021,0.105505,0.027402,-0.000000,-0.000000,9.810000
0.483026,0.028929,0.045509,-0.005323,-0.000000,-0.000000,9.810000
0.507682,-0.036521,-0.055938,-0.007505,-0.000000,-0.000000,9.810000
0.524768,0.023475,0.048782,0.017584,-0.000000,-0.000000,9.810000
0.543417,0.061654,0.020420,0.028492,-0.000000,-0.000000,9.810000
0.563543,-0.009250,-0.013395,-0.050047,-0.000000,-0.000000,9.810000
0.584703,-0.020159,-0.009032,0.007767,-0.000000,-0.000000,9.810000
0.605509,0.011476,-0.022122,-0.017322,-0.000000,-0.000000,9.810000
0.625355,0.025656,-0.000305,0.015403,-0.000000,-0.000000,9.810000
0.643848,0.036565,-0.043939,0.008858,-0.000000,-0.000000,9.810000
0.663843,0.033292,-0.019940,-0.036957,-0.000000,-0.000000,9.810000
0.683995,0.004931,0.013875,0.020857,-0.000000,-0.000000,9.810000
0.704162,-0.049611,0.032419,0.002313,-0.000000,-0.000000,9.810000
0.724432,0.012566,-0.066846,0.000131,-0.000000,-0.000000,9.810000
0.744253,0.018021,0.000785,-0.006414,-0.000000,-0.000000,9.810000
0.764390,0.002749,-0.000305,0.011039,-0.000000,-0.000000,9.810000
0.784499,0.011476,-0.019940,-0.003142,-0.000000,-0.000000,9.810000
0.804566,0.010385,-0.010123,-0.000960,-0.000000,-0.000000,9.810000
0.825330,0.001658,-0.003578,-0.007505,-0.000000,-0.000000,9.810000
0.846017,0.013657,-0.001396,0.011039,-0.000000,-0.000000,9.810000
0.865187,-0.001614,0.031329,-0.017322,-0.000000,-0.000000,9.810000
0.884912,0.000567,-0.001396,0.016493,-0.000000,-0.000000,9.810000
0.905013,0.011476,-0.030849,-0.014050,-0.000000,-0.000000,9.810000
0.925069,0.030020,-0.003578,0.015403,-0.000000,-0.000000,9.810000
0.945196,0.010385,-0.033030,-0.033685,-0.000000,-0.000000,9.810000
0.965268,-0.002705,-0.009032,-0.095862,-0.000000,-0.000000,9.810000
0.985343,0.015839,-0.024304,0.072126,-0.000000,-0.000000,9.810000
1.005420,0.022384,0.084779,0.049218,-0.000000,-0.000000,9.810000
1.025482,0.001658,-0.045029,0.014312,-0.000000,-0.000000,9.810000
1.045564,-0.034339,-0.025395,-0.084954,-0.000000,-0.000000,9.810000
1.065723,0.031110,0.004058,-0.117679,-0.000000,-0.000000,9.810000
1.085850,-0.014704,-0.019940,0.062308,-0.000000,-0.000000,9.810000
1.105950,-0.003796,-0.031940,0.009948,-0.000000,-0.000000,9.810000
1.126138,-0.041975,-0.017759,-0.088226,-0.000000,-0.000000,9.810000
1.147535,0.015839,0.004058,0.027402,-0.000000,-0.000000,9.810000
1.167328,0.061654,0.021511,0.146302,-0.000000,-0.000000,9.810000
1.189251,-0.020159,0.011694,0.036128,-0.000000,-0.000000,9.810000
1.206593,-0.035430,0.018239,-0.077318,-0.000000,-0.000000,9.810000
1.226481,0.000567,0.010603,0.020857,-0.000000,-0.000000,9.810000
1.246646,-0.002705,-0.034121,-0.071864,-0.000000,-0.000000,9.810000
1.266811,-0.007069,-0.054847,-0.196219,-0.000000,-0.000000,9.810000
1.286807,-0.087790,0.020420,0.042673,-0.000000,-0.000000,9.810000
1.306961,-0.022340,0.016057,0.256476,-0.000000,-0.000000,9.810000
1.327058,0.084561,0.062963,0.063399,-0.000000,-0.000000,9.810000
1.347066,-0.061610,0.026965,-0.041321,-0.000000,-0.000000,9.810000
1.367216,-0.108516,0.002967,-0.012959,-0.000000,-0.000000,9.810000
1.387261,0.008203,0.019330,-0.052229,-0.000000,-0.000000,9.810000
1.407368,0.142375,-0.108298,-0.346753,-0.000000,-0.000000,9.810000
1.427515,-0.004887,-0.042848,-0.190764,-0.000000,-0.000000,9.810000
1.447552,-0.027794,0.035692,0.205207,-0.000000,-0.000000,9.810000
1.467642,0.030020,-0.004669,0.368832,-0.000000,-0.000000,9.810000
1.487684,-0.067064,0.032419,0.150666,-0.000000,-0.000000,9.810000
1.507878,-0.002705,0.017148,-0.042412,-0.000000,-0.000000,9.810000
1.527889,-0.025613,0.022602,-0.082772,-0.000000,-0.000000,9.810000
1.547973,-0.072518,-0.010123,-0.131860,-0.000000,-0.000000,9.810000
1.568107,0.156556,-0.198837,-0.494015,-0.000000,-0.000000,9.810000
1.588123,-0.159785,-0.002487,-0.065319,-0.000000,-0.000000,9.810000
1.608254,0.009294,-0.007941,0.277202,-0.000000,-0.000000,9.810000
1.628369,-0.040884,-0.040666,0.307745,-0.000000,-0.000000,9.810000
1.648519,-0.223053,0.081507,0.021948,-0.000000,-0.000000,9.810000
1.668697,0.002749,0.029147,-0.144950,-0.000000,-0.000000,9.810000
1.689678,-0.068155,0.144775,-0.084954,-0.000000,-0.000000,9.810000
1.708745,0.066017,-0.107207,-0.359843,-0.000000,-0.000000,9.810000
1.729724,0.210007,-0.249015,-0.500560,-0.000000,-0.000000,9.810000
1.749707,-0.224144,0.189499,-0.014050,-0.000000,-0.000000,9.810000
1.769679,0.116195,0.124049,0.506276,-0.000000,-0.000000,9.810000
1.790300,0.006021,0.129503,0.412465,-0.000000,-0.000000,9.810000
1.809948,-0.048520,0.037874,0.063399,-0.000000,-0.000000,9.810000
1.831174,-0.088881,0.104414,-0.086045,-0.000000,-0.000000,9.810000
1.849845,0.093288,-0.109389,-0.091499,-0.000000,-0.000000,9.810000
1.869785,-0.109607,-0.077754,-0.402386,-0.000000,-0.000000,9.810000
1.890429,-0.034339,-0.232652,-0.606371,-0.000000,-0.000000,9.810000
1.911421,-0.038703,0.132776,-0.221308,-0.000000,-0.000000,9.810000
1.932214,-0.110698,0.050964,0.296837,-0.000000,-0.000000,9.810000
1.949953,-0.073609,0.119686,0.242295,-0.000000,-0.000000,9.810000
1.970204,-0.028885,0.041146,0.059036,-0.000000,-0.000000,9.810000
1.990125,-0.082336,-0.058119,-0.054411,-0.000000,-0.000000,9.810000
2.010240,0.139103,-0.107207,-0.167857,-0.000000,-0.000000,9.810000
2.030358,-0.159785,0.041146,-0.543103,-0.000000,-0.000000,9.810000
2.050475,-0.304865,-0.002487,-0.581282,-0.000000,-0.000000,9.810000
2.071020,0.119468,-0.014486,-0.430747,-0.000000,-0.000000,9.810000
2.091781,0.008203,-0.091935,0.391739,-0.000000,-0.000000,9.810000
2.111844,0.115104,0.060781,0.573908,-0.000000,-0.000000,9.810000
2.131622,-0.088881,0.151320,0.168119,-0.000000,-0.000000,9.810000
2.152542,-0.044157,-0.050484,0.014312,-0.000000,-0.000000,9.810000
2.171294,0.064926,-0.136659,-0.143859,-0.000000,-0.000000,9.810000
2.192171,0.014748,-0.091935,-0.336936,-0.000000,-0.000000,9.810000
2.211257,-0.108516,-0.014486,-0.600917,-0.000000,-0.000000,9.810000
2.231427,-0.132514,-0.015577,-0.525650,-0.000000,-0.000000,9.810000
2.251471,-0.013614,-0.026485,-0.040230,-0.000000,-0.000000,9.810000
2.271548,0.220915,0.091324,0.728806,-0.000000,-0.000000,9.810000
2.292373,-0.056156,-0.107207,0.646994,-0.000000,-0.000000,9.810000
2.311663,0.275457,-0.134478,0.385194,-0.000000,-0.000000,9.810000
2.333803,-0.050702,0.047691,-0.407840,-0.000000,-0.000000,9.810000
2.353604,0.083470,0.049873,-0.523468,-0.000000,-0.000000,9.810000
2.372747,-0.697564,0.513476,-0.441656,-0.000000,-0.000000,9.810000
2.392410,-0.229598,-0.249015,-0.787449,-0.000000,-0.000000,9.810000
2.413484,0.164192,0.154593,-0.653277,-0.000000,-0.000000,9.810000
2.433285,0.071471,0.116413,0.269566,-0.000000,-0.000000,9.810000
2.453308,0.272184,-0.004669,0.634994,-0.000000,-0.000000,9.810000
2.472531,-0.248142,0.161138,0.378649,-0.000000,-0.000000,9.810000
2.492497,0.297273,0.152411,0.343743,-0.000000,-0.000000,9.810000
2.512644,0.212188,-0.122478,-0.508196,-0.000000,-0.000000,9.810000
2.532734,-0.175057,0.112050,-0.449291,-0.000000,-0.000000,9.810000
2.552707,-0.167421,-0.213017,-0.479835,-0.000000,-0.000000,9.810000
2.572874,0.087834,-0.217381,-0.651095,-0.000000,-0.000000,9.810000
2.593070,0.091106,0.023693,-0.119860,-0.000000,-0.000000,9.810000
2.613060,0.250367,-0.238107,0.444099,-0.000000,-0.000000,9.810000
2.633150,0.083470,-0.168293,0.530275,-0.000000,-0.000000,9.810000
2.653293,0.004931,0.001876,0.413556,-0.000000,-0.000000,9.810000
2.673323,0.262367,-0.043939,-0.074046,-0.000000,-0.000000,9.810000
2.693455,0.014748,-0.071209,-0.263850,-0.000000,-0.000000,9.810000
2.713596,-0.252506,0.086961,-0.052229,-0.000000,-0.000000,9.810000
2.733840,0.022384,0.004058,-0.412203,-0.000000,-0.000000,9.810000
2.753723,-0.204509,0.102233,-0.487470,-0.000000,-0.000000,9.810000
2.775314,0.163101,0.156774,0.051400,-0.000000,-0.000000,9.810000
2.794062,0.123831,-0.297011,0.330653,-0.000000,-0.000000,9.810000
2.813998,0.064926,-0.072300,0.443008,-0.000000,-0.000000,9.810000
2.835974,0.243823,-0.155203,0.503004,-0.000000,-0.000000,9.810000
2.855550,0.284183,-0.256651,0.259749,-0.000000,-0.000000,9.810000
2.875420,0.060563,-0.145386,-0.165675,-0.000000,-0.000000,9.810000
2.895307,-0.384496,0.512385,-0.274758,-0.000000,-0.000000,9.810000
2.914574,-0.349589,0.342215,-0.612916,-0.000000,-0.000000,9.810000
2.934596,-0.442310,0.225497,-0.841990,-0.000000,-0.000000,9.810000
2.955551,-0.264505,0.070599,-0.757996,-0.000000,-0.000000,9.810000
2.976019,0.109650,0.389121,-0.251851,-0.000000,-0.000000,9.810000
2.997175,0.168555,-0.004669,0.239023,-0.000000,-0.000000,9.810000
3.016487,-0.199055,-0.051574,0.409192,-0.000000,-0.000000,9.810000
3.035102,0.333271,-0.245742,0.813891,-0.000000,-0.000000,9.810000
3.055236,0.633249,-0.656986,0.435372,-0.000000,-0.000000,9.810000
3.075314,0.007112,-0.034121,-0.124224,-0.000000,-0.000000,9.810000
3.095413,-0.094335,0.048782,-0.200582,-0.000000,-0.000000,9.810000
3.115993,-0.067064,0.172046,-0.438383,-0.000000,-0.000000,9.810000
3.135532,-0.051793,0.036783,-1.248870,-0.000000,-0.000000,9.810000
3.155781,-0.069246,0.403302,-0.578009,-0.000000,-0.000000,9.810000
3.175753,-0.191419,0.097869,0.500822,-0.000000,-0.000000,9.810000
3.196478,-0.149967,0.226587,1.098598,-0.000000,-0.000000,9.810000
3.216458,0.228551,-0.091935,1.081144,-0.000000,-0.000000,9.810000
3.236006,0.605978,-0.517359,-0.074046,-0.000000,-0.000000,9.810000
3.256839,-0.038703,0.046600,-0.399113,-0.000000,-0.000000,9.810000
3.277275,-0.353953,0.215679,0.260839,-0.000000,-0.000000,9.810000
3.297437,-0.764105,0.199317,0.207389,-0.000000,-0.000000,9.810000
3.316983,-0.843736,0.410938,-0.639096,-0.000000,-0.000000,9.810000
3.337373,-0.240506,0.193862,-1.029613,-0.000000,-0.000000,9.810000
3.356570,0.167464,0.245131,-0.320573,-0.000000,-0.000000,9.810000
3.376640,-0.136877,-0.002487,0.111396,-0.000000,-0.000000,9.810000
3.396726,-0.334318,0.160047,0.435372,-0.000000,-0.000000,9.810000
3.417044,0.171828,-0.287194,1.137867,-0.000000,-0.000000,9.810000
3.437352,0.413992,-0.518450,0.549910,-0.000000,-0.000000,9.810000
3.457068,0.479442,-0.371188,-0.391477,-0.000000,-0.000000,9.810000
3.477083,0.616887,-0.592627,-0.813629,-0.000000,-0.000000,9.810000
3.497217,0.303818,-0.279558,-0.665276,-0.000000,-0.000000,9.810000
3.517260,0.442354,-0.294830,-0.100226,-0.000000,-0.000000,9.810000
3.537447,0.482714,-0.462818,0.198662,-0.000000,-0.000000,9.810000
3.557438,0.174009,-0.021031,0.027402,-0.000000,-0.000000,9.810000
3.578859,0.013657,0.214588,-0.102407,-0.000000,-0.000000,9.810000
3.597874,-0.048520,0.080416,-0.209309,-0.000000,-0.000000,9.810000
3.617717,-0.688838,0.736005,-0.226762,-0.000000,-0.000000,9.810000
3.637870,-0.737925,0.041146,-0.072955,-0.000000,-0.000000,9.810000
3.657916,-0.799012,0.261494,-0.153676,-0.000000,-0.000000,9.810000
3.678017,-0.338681,0.214588,-0.774359,-0.000000,-0.000000,9.810000
3.698168,-0.274322,0.667283,-0.312938,-0.000000,-0.000000,9.810000
3.719115,-0.428129,0.596379,0.186663,-0.000000,-0.000000,9.810000
3.739109,-0.643023,0.566927,0.520457,-0.000000,-0.000000,9.810000
3.758541,-0.216508,-0.149749,1.014603,-0.000000,-0.000000,9.810000
3.778529,-0.241597,0.049873,1.039693,-0.000000,-0.000000,9.810000
3.799611,0.299455,-0.425729,0.013221,-0.000000,-0.000000,9.810000
3.819024,0.326726,0.076053,-0.594372,-0.000000,-0.000000,9.810000
3.838794,0.141284,0.095688,-0.233307,-0.000000,-0.000000,9.810000
3.858944,1.140485,-0.528268,-0.254033,-0.000000,-0.000000,9.810000
3.879079,0.747786,-0.134478,-0.772177,-0.000000,-0.000000,9.810000
3.899120,0.828508,-0.474817,-1.041613,-0.000000,-0.000000,9.810000
3.919262,0.892867,-0.602444,-0.793994,-0.000000,-0.000000,9.810000
3.939289,0.140194,0.000785,-0.022777,-0.000000,-0.000000,9.810000
3.960875,0.027838,-0.317737,0.494277,-0.000000,-0.000000,9.810000
3.979676,-0.280867,0.037874,0.115759,-0.000000,-0.000000,9.810000
3.999542,-0.584118,0.073871,-0.094771,-0.000000,-0.000000,9.810000
4.019650,-0.683384,0.357487,-0.262759,-0.000000,-0.000000,9.810000
4.039713,-1.169894,0.709825,0.225933,-0.000000,-0.000000,9.810000
4.059809,-1.772033,1.104706,0.867341,-0.000000,-0.000000,9.810000
4.079920,-1.386970,0.932355,1.515295,-0.000000,-0.000000,9.810000
4.100135,-0.899368,-0.003578,1.152048,-0.000000,-0.000000,9.810000
4.120145,-0.080154,0.271311,0.850979,-0.000000,-0.000000,9.810000
4.142367,0.999768,-0.471544,0.759349,-0.000000,-0.000000,9.810000
4.160769,1.439373,0.101142,1.051692,-0.000000,-0.000000,9.810000
4.180775,0.431445,-0.022122,0.873886,-0.000000,-0.000000,9.810000
4.200588,0.560163,-0.719163,0.349197,-0.000000,-0.000000,9.810000
4.220531,1.426283,-1.543831,0.140848,-0.000000,-0.000000,9.810000
4.240638,1.744806,-1.316938,-0.665276,-0.000000,-0.000000,9.810000
4.260751,1.437191,-0.514087,-1.531396,-0.000000,-0.000000,9.810000
4.280896,1.633541,-0.702800,-2.000000,-0.000000,-0.000000,9.810000
4.300993,0.393266,0.365123,-2.000000,-0.000000,-0.000000,9.810000
4.321111,-1.325883,1.143976,-0.828901,-0.000000,-0.000000,9.810000
4.341136,-0.260141,-0.928602,-0.691456,-0.000000,-0.000000,9.810000
4.361721,-0.660476,0.787274,-0.197309,-0.000000,-0.000000,9.810000
4.381325,-0.348499,-0.334100,0.665538,-0.000000,-0.000000,9.810000
4.401353,-0.501215,-0.136659,1.284039,-0.000000,-0.000000,9.810000
4.421454,-0.556847,0.055327,2.000000,-0.000000,-0.000000,9.810000
4.441542,-0.680111,-0.115933,2.000000,-0.000000,-0.000000,9.810000
4.461656,-0.879733,0.823272,2.000000,-0.000000,-0.000000,9.810000
4.481804,-1.560412,0.293128,2.000000,-0.000000,-0.000000,9.810000
4.501876,-2.000000,1.078526,1.477116,-0.000000,-0.000000,9.810000
4.522033,-2.000000,2.000000,0.581544,-0.000000,-0.000000,9.810000
4.542091,-2.000000,1.076345,0.411374,-0.000000,-0.000000,9.810000
4.562159,-1.976018,0.744732,0.629540,-0.000000,-0.000000,9.810000
4.582265,-2.000000,0.625831,0.415737,-0.000000,-0.000000,9.810000
4.602343,-2.000000,0.595288,0.672083,-0.000000,-0.000000,9.810000
4.622486,-1.437148,-0.652622,1.337489,-0.000000,-0.000000,9.810000
4.642503,0.335452,-0.988598,1.373487,-0.000000,-0.000000,9.810000
4.662640,2.000000,-1.824175,1.059328,-0.000000,-0.000000,9.810000
4.682750,2.000000,-2.000000,0.557545,-0.000000,-0.000000,9.810000
4.704000,2.000000,-2.000000,-0.138405,-0.000000,-0.000000,9.810000
4.722926,2.000000,-1.731454,-0.602008,-0.000000,-0.000000,9.810000
4.743348,2.000000,-1.647460,-2.000000,-0.000000,-0.000000,9.810000
4.764225,2.000000,-1.553648,-2.000000,-0.000000,-0.000000,9.810000
4.783252,0.424900,1.068709,-1.462673,-0.000000,-0.000000,9.810000
4.804561,0.469624,0.119686,0.083034,-0.000000,-0.000000,9.810000
4.824192,0.871050,-0.939511,0.140848,-0.000000,-0.000000,9.810000
4.843823,-0.782649,-0.723526,1.011331,-0.000000,-0.000000,9.810000
4.863631,-0.537212,1.094889,0.776802,-0.000000,-0.000000,9.810000
4.883853,-0.965909,0.251676,0.980788,-0.000000,-0.000000,9.810000
4.903781,-0.904822,0.688009,0.551000,-0.000000,-0.000000,9.810000
4.923868,-1.044449,0.179682,0.258658,-0.000000,-0.000000,9.810000
4.946694,-1.216800,0.571290,1.200045,-0.000000,-0.000000,9.810000
4.964276,-1.911659,1.416684,1.830545,-0.000000,-0.000000,9.810000
4.984803,-2.000000,1.617397,2.000000,-0.000000,-0.000000,9.810000
5.005633,-1.821120,0.490568,1.845817,-0.000000,-0.000000,9.810000
5.028662,-0.178329,-0.844608,1.950536,-0.000000,-0.000000,9.810000
5.045447,-1.300794,-0.953692,1.537112,-0.000000,-0.000000,9.810000
5.066887,-0.048520,0.265857,2.000000,-0.000000,-0.000000,9.810000
5.084588,2.000000,-1.788177,2.000000,-0.000000,-0.000000,9.810000
5.104748,2.000000,-2.000000,2.000000,-0.000000,-0.000000,9.810000
5.124796,2.000000,-2.000000,2.000000,-0.000000,-0.000000,9.810000
5.144861,2.000000,0.049873,2.000000,-0.000000,-0.000000,9.810000
5.165013,-1.810212,0.713098,2.000000,-0.000000,-0.000000,9.810000
5.185047,1.746987,0.909447,0.589180,-0.000000,-0.000000,9.810000
5.205150,0.222006,0.404393,-0.208218,-0.000000,-0.000000,9.810000
5.229159,-0.051793,0.903993,-0.294393,-0.000000,-0.000000,9.810000
5.245643,-0.380133,0.374940,0.233569,-0.000000,-0.000000,9.810000
5.267052,-0.848099,0.304036,0.672083,-0.000000,-0.000000,9.810000
5.287285,-0.527395,-0.578446,0.844434,-0.000000,-0.000000,9.810000
5.306839,-0.451037,-0.230471,0.439736,-0.000000,-0.000000,9.810000
5.325704,-0.337590,-0.304647,0.245568,-0.000000,-0.000000,9.810000
5.345797,-0.896096,-0.383187,0.488823,-0.000000,-0.000000,9.810000
5.365838,-0.996452,-1.227490,1.713826,-0.000000,-0.000000,9.810000
5.385921,-0.787013,-0.023213,2.000000,-0.000000,-0.000000,9.810000
5.407678,-0.621206,-0.378824,2.000000,-0.000000,-0.000000,9.810000
5.426238,-0.487034,-0.101753,2.000000,-0.000000,-0.000000,9.810000
5.448517,-0.557938,0.081507,2.000000,-0.000000,-0.000000,9.810000
5.467135,-1.540777,0.467661,0.390648,-0.000000,-0.000000,9.810000
5.487208,-0.842645,0.237496,-0.676184,-0.000000,-0.000000,9.810000
5.507288,-0.828464,0.245131,-0.608553,-0.000000,-0.000000,9.810000
5.527365,-1.485144,0.621468,-0.490743,-0.000000,-0.000000,9.810000
5.547529,-2.000000,0.508022,-0.423111,-0.000000,-0.000000,9.810000
5.567594,-2.000000,2.000000,0.301200,-0.000000,-0.000000,9.810000
5.588189,-1.868026,0.106596,0.030674,-0.000000,-0.000000,9.810000
5.608869,-0.843736,-0.021031,0.072126,-0.000000,-0.000000,9.810000
5.630945,-1.462237,-0.229380,0.395012,-0.000000,-0.000000,9.810000
5.647378,-1.377152,0.295310,0.603360,-0.000000,-0.000000,9.810000
5.667559,-0.264505,-0.780249,0.762622,-0.000000,-0.000000,9.810000
5.687548,-0.079063,-0.987507,1.121505,-0.000000,-0.000000,9.810000
5.707630,-0.058338,-0.812974,0.787711,-0.000000,-0.000000,9.810000
5.727875,0.841598,-0.961327,0.379740,-0.000000,-0.000000,9.810000
5.748130,1.560455,-0.999506,-0.136223,-0.000000,-0.000000,9.810000
5.767887,1.371742,-0.417003,-0.462381,-0.000000,-0.000000,9.810000
5.788969,1.229934,-0.725708,-0.492925,-0.000000,-0.000000,9.810000
5.809678,1.491733,-0.939511,0.102669,-0.000000,-0.000000,9.810000
5.829018,1.400103,-0.892605,-0.026049,-0.000000,-0.000000,9.810000
5.849350,1.372832,-0.818429,0.039401,-0.000000,-0.000000,9.810000
5.868552,2.000000,-1.012596,0.518275,-0.000000,-0.000000,9.810000
5.888436,1.324836,-0.406094,0.067762,-0.000000,-0.000000,9.810000
5.908578,0.621250,1.008713,-0.403476,-0.000000,-0.000000,9.810000
5.928607,0.030020,0.285492,-0.028231,-0.000000,-0.000000,9.810000
5.948746,0.047473,0.948717,0.017584,-0.000000,-0.000000,9.810000
5.968865,-0.117242,0.837453,0.282656,-0.000000,-0.000000,9.810000
5.989001,0.196917,0.764367,0.425555,-0.000000,-0.000000,9.810000
6.009024,-0.436856,1.424320,-0.186401,-0.000000,-0.000000,9.810000
6.029673,0.746695,0.686918,0.052491,-0.000000,-0.000000,9.810000
6.049550,1.067400,0.211316,0.339379,-0.000000,-0.000000,9.810000
6.071570,0.914683,0.935627,0.289201,-0.000000,-0.000000,9.810000
6.091166,1.835345,-0.217381,0.026311,-0.000000,-0.000000,9.810000
6.109741,0.886322,1.220334,-0.450382,-0.000000,-0.000000,9.810000
6.129600,1.010677,0.235314,-0.183129,-0.000000,-0.000000,9.810000
6.149661,0.505622,0.091324,-0.789631,-0.000000,-0.000000,9.810000
6.169728,0.856869,0.035692,-1.628479,-0.000000,-0.000000,9.810000
6.189870,0.564527,0.074962,-1.608845,-0.000000,-0.000000,9.810000
6.209934,0.431445,-0.496633,-1.734290,-0.000000,-0.000000,9.810000
6.230032,-0.339772,-0.760615,-1.795377,-0.000000,-0.000000,9.810000
6.250116,-0.431402,-0.066846,-1.273959,-0.000000,-0.000000,9.810000
6.270247,-0.612480,0.286583,-0.791812,-0.000000,-0.000000,9.810000
6.290331,-0.567756,-0.239197,-0.088226,-0.000000,-0.000000,9.810000
6.310390,-0.909186,0.030238,0.495368,-0.000000,-0.000000,9.810000
6.330560,-1.092445,-0.493361,1.606925,-0.000000,-0.000000,9.810000
6.350614,-1.023723,-0.311192,2.000000,-0.000000,-0.000000,9.810000
6.370765,-1.073901,-1.153314,2.000000,-0.000000,-0.000000,9.810000
6.390841,-1.073901,-0.333009,2.000000,-0.000000,-0.000000,9.810000
6.410942,-1.413149,-0.570810,2.000000,-0.000000,-0.000000,9.810000
6.431044,-1.833119,0.346579,1.438937,-0.000000,-0.000000,9.810000
6.451143,-2.000000,0.622559,0.772439,-0.000000,-0.000000,9.810000
6.471236,-2.000000,1.578127,0.319744,-0.000000,-0.000000,9.810000
6.491325,-2.000000,1.121069,0.303382,-0.000000,-0.000000,9.810000
6.511379,-1.539686,0.545110,0.940427,-0.000000,-0.000000,9.810000
6.532199,-1.018269,-0.542448,1.047328,-0.000000,-0.000000,9.810000
6.551638,-1.280068,0.320399,1.099688,-0.000000,-0.000000,9.810000
6.571676,-0.552484,-0.297011,0.769167,-0.000000,-0.000000,9.810000
6.591731,-0.112879,-0.564265,-0.054411,-0.000000,-0.000000,9.810000
6.611858,1.078308,-0.617716,-0.757996,-0.000000,-0.000000,9.810000
6.631929,1.821164,-0.619897,-0.436201,-0.000000,-0.000000,9.810000
6.651977,1.890977,-1.378025,-0.292212,-0.000000,-0.000000,9.810000
6.672191,1.912794,-1.059502,-0.551829,-0.000000,-0.000000,9.810000
6.692118,1.580090,-0.840245,-0.718727,-0.000000,-0.000000,9.810000
6.713552,1.330290,-0.782431,-0.203854,-0.000000,-0.000000,9.810000
6.732492,1.493915,-1.193674,0.116850,-0.000000,-0.000000,9.810000
6.752854,1.660812,-1.322392,-0.399113,-0.000000,-0.000000,9.810000
6.772657,1.520095,-0.924239,-0.329300,-0.000000,-0.000000,9.810000
6.794164,-0.068155,0.738187,0.294655,-0.000000,-0.000000,9.810000
6.813212,0.127104,0.455662,0.573908,-0.000000,-0.000000,9.810000
6.832882,-0.083427,0.156774,0.091761,-0.000000,-0.000000,9.810000
6.852922,-0.097608,0.462207,-0.012959,-0.000000,-0.000000,9.810000
6.872997,-0.136877,0.466570,0.143030,-0.000000,-0.000000,9.810000
6.893166,0.080198,0.626922,0.260839,-0.000000,-0.000000,9.810000
6.913237,0.250367,0.284401,-0.002051,-0.000000,-0.000000,9.810000
6.933316,0.226369,0.587652,0.087397,-0.000000,-0.000000,9.810000
6.953357,-0.049611,1.486497,0.607724,-0.000000,-0.000000,9.810000
6.973511,0.382358,0.812364,1.023330,-0.000000,-0.000000,9.810000
6.994716,0.987769,0.193862,0.950244,-0.000000,-0.000000,9.810000
7.014763,0.775057,-0.229380,0.369923,-0.000000,-0.000000,9.810000
7.034663,1.287748,-0.610080,-0.195128,-0.000000,-0.000000,9.810000
7.054605,1.036857,0.629104,-0.556193,-0.000000,-0.000000,9.810000
7.074725,0.658338,0.121868,-0.548557,-0.000000,-0.000000,9.810000
7.095568,0.637612,0.521112,-1.188875,-0.000000,-0.000000,9.810000
7.115458,-0.077973,-0.022122,-1.397223,-0.000000,-0.000000,9.810000
7.134785,0.339816,-0.289376,-1.805194,-0.000000,-0.000000,9.810000
7.154420,-0.509942,0.095688,-1.032886,-0.000000,-0.000000,9.810000
7.174452,-0.758651,-0.190110,0.060127,-0.000000,-0.000000,9.810000
7.196888,-0.796830,-0.157385,0.104851,-0.000000,-0.000000,9.810000
7.215923,-0.663749,-0.648259,0.314290,-0.000000,-0.000000,9.810000
7.234784,-1.234253,0.227678,1.161866,-0.000000,-0.000000,9.810000
7.255038,-1.236435,-0.936238,1.995260,-0.000000,-0.000000,9.810000
7.276217,-0.867734,-0.264286,2.000000,-0.000000,-0.000000,9.810000
7.297359,-0.781558,-0.087572,2.000000,-0.000000,-0.000000,9.810000
7.316202,-1.118625,0.429482,2.000000,-0.000000,-0.000000,9.810000
7.335993,-1.637861,1.328326,1.569836,-0.000000,-0.000000,9.810000
7.355962,-2.000000,2.000000,0.748441,-0.000000,-0.000000,9.810000
7.375574,-2.000000,0.284401,0.320835,-0.000000,-0.000000,9.810000
7.395451,-1.882207,0.789456,0.891340,-0.000000,-0.000000,9.810000
7.415606,-0.502306,-0.242470,1.146594,-0.000000,-0.000000,9.810000
7.435689,-1.304066,-0.480271,0.852070,-0.000000,-0.000000,9.810000
7.455730,-0.924457,0.335670,0.783347,-0.000000,-0.000000,9.810000
7.475848,-0.808829,0.132776,0.569545,-0.000000,-0.000000,9.810000
7.495968,-0.759742,0.028056,0.323017,-0.000000,-0.000000,9.810000
7.516025,0.349633,-0.570810,-0.032594,-0.000000,-0.000000,9.810000
7.537260,2.000000,-1.181675,-0.486380,-0.000000,-0.000000,9.810000
7.557929,2.000000,-1.258033,-1.431039,-0.000000,-0.000000,9.810000
7.579121,2.000000,-1.256943,-1.218327,-0.000000,-0.000000,9.810000
7.596406,2.000000,-1.294031,-0.689274,-0.000000,-0.000000,9.810000
7.616539,1.845162,-1.246034,-0.362025,-0.000000,-0.000000,9.810000
7.636603,2.000000,-1.811085,-0.166766,-0.000000,-0.000000,9.810000
7.656684,2.000000,-1.922349,-0.605280,-0.000000,-0.000000,9.810000
7.676979,-1.050994,0.981442,0.533547,-0.000000,-0.000000,9.810000
7.697067,0.697608,0.276766,0.039401,-0.000000,-0.000000,9.810000
7.716968,-0.590663,0.317126,0.199753,-0.000000,-0.000000,9.810000
7.737235,-0.910276,0.645466,0.401557,-0.000000,-0.000000,9.810000
7.757234,-0.910276,0.645466,0.401557,-0.000000,-0.000000,9.810000
7.777180,-0.910276,0.645466,0.401557,-0.000000,-0.000000,9.810000
7.797270,-0.910276,0.645466,0.401557,-0.000000,-0.000000,9.810000
7.817342,-0.910276,0.645466,0.401557,-0.000000,-0.000000,9.810000
7.837446,-0.910276,0.645466,0.401557,-0.000000,-0.000000,9.810000
7.857681,-0.561211,0.329125,0.038310,-0.000000,-0.000000,9.810000
7.877801,-0.480489,0.301855,-0.237670,-0.000000,-0.000000,9.810000
7.897878,-0.007069,-0.057029,0.337198,-0.000000,-0.000000,9.810000
7.919080,0.057290,-0.334100,1.327672,-0.000000,-0.000000,9.810000
7.938069,-0.416130,-0.511905,1.577472,-0.000000,-0.000000,9.810000
7.958216,-1.064084,1.152703,1.500023,-0.000000,-0.000000,9.810000
7.978451,-1.660768,1.814837,1.155321,-0.000000,-0.000000,9.810000
7.998387,-2.000000,0.431664,0.750622,-0.000000,-0.000000,9.810000
8.018405,1.519004,-0.787885,1.976716,-0.000000,-0.000000,9.810000
8.039466,2.000000,-1.607099,2.000000,-0.000000,-0.000000,9.810000
8.058890,2.000000,-2.000000,2.000000,-0.000000,-0.000000,9.810000
8.079084,2.000000,-2.000000,2.000000,-0.000000,-0.000000,9.810000
8.099933,2.000000,1.019621,1.537112,-0.000000,-0.000000,9.810000
8.118902,-0.230689,0.619286,0.952426,-0.000000,-0.000000,9.810000
8.140753,1.176483,0.857088,-0.215854,-0.000000,-0.000000,9.810000
8.160750,0.075835,0.877813,-0.164585,-0.000000,-0.000000,9.810000
8.179227,0.667065,0.318217,-0.215854,-0.000000,-0.000000,9.810000
8.199294,-0.647386,0.565836,0.268475,-0.000000,-0.000000,9.810000
8.219372,-1.112080,0.239677,0.592452,-0.000000,-0.000000,9.810000
8.239547,-1.106626,-0.704982,0.694990,-0.000000,-0.000000,9.810000
8.259628,-1.465509,-0.031940,0.412465,-0.000000,-0.000000,9.810000
8.279721,-0.862280,-0.937329,1.134595,-0.000000,-0.000000,9.810000
8.299753,-0.626660,-0.054847,2.000000,-0.000000,-0.000000,9.810000
8.319839,-0.628842,-0.261014,2.000000,-0.000000,-0.000000,9.810000
8.340491,-0.829555,0.184045,2.000000,-0.000000,-0.000000,9.810000
8.359998,-0.554666,0.565836,2.000000,-0.000000,-0.000000,9.810000
8.380093,-0.804466,0.780729,1.873087,-0.000000,-0.000000,9.810000
8.400223,-2.000000,0.056418,0.619723,-0.000000,-0.000000,9.810000
8.420258,-2.000000,0.539656,-0.050047,-0.000000,-0.000000,9.810000
8.440409,-2.000000,1.303237,-0.355480,-0.000000,-0.000000,9.810000
8.460416,-2.000000,2.000000,0.306654,-0.000000,-0.000000,9.810000
8.480542,-2.000000,1.076345,0.461552,-0.000000,-0.000000,9.810000
8.500648,-2.000000,0.801455,1.028784,-0.000000,-0.000000,9.810000
8.520736,-2.000000,-0.724617,2.000000,-0.000000,-0.000000,9.810000
8.540841,-1.692402,-0.528268,2.000000,-0.000000,-0.000000,9.810000
8.560881,-0.706291,-1.524196,1.969080,-0.000000,-0.000000,9.810000
8.581716,-1.143714,-0.234834,1.593835,-0.000000,-0.000000,9.810000
8.602884,0.222006,-1.883079,1.562201,-0.000000,-0.000000,9.810000
8.622523,1.130668,-2.000000,1.123687,-0.000000,-0.000000,9.810000
8.642655,1.876796,-2.000000,0.608814,-0.000000,-0.000000,9.810000
8.661406,2.000000,-1.693275,-0.416566,-0.000000,-0.000000,9.810000
8.681527,2.000000,-1.951802,-1.462673,-0.000000,-0.000000,9.810000
8.701615,2.000000,-2.000000,-2.000000,-0.000000,-0.000000,9.810000
8.721689,2.000000,-1.045321,-1.276141,-0.000000,-0.000000,9.810000
8.743304,-0.032158,-0.210836,0.855342,-0.000000,-0.000000,9.810000
8.764264,0.292910,0.396757,0.495368,-0.000000,-0.000000,9.810000
8.783773,-0.451037,-0.111570,0.525911,-0.000000,-0.000000,9.810000
8.803278,0.081289,0.283311,0.013221,-0.000000,-0.000000,9.810000
8.822299,-0.316865,0.045509,0.405920,-0.000000,-0.000000,9.810000
8.842360,-1.189529,0.958535,0.749532,-0.000000,-0.000000,9.810000
8.862451,-1.307339,1.141794,0.551000,-0.000000,-0.000000,9.810000
8.882489,-1.313884,0.994532,-0.108952,-0.000000,-0.000000,9.810000
8.902606,-1.790577,1.499587,0.205207,-0.000000,-0.000000,9.810000
8.922717,-1.824393,1.459226,0.690627,-0.000000,-0.000000,9.810000
8.943404,-1.815666,1.092707,1.186955,-0.000000,-0.000000,9.810000
8.963012,-0.755378,0.450208,1.437846,-0.000000,-0.000000,9.810000
8.983103,0.046382,-0.917694,1.581836,-0.000000,-0.000000,9.810000
9.003064,-0.291775,0.564745,1.178228,-0.000000,-0.000000,9.810000
9.023066,1.007404,-0.530449,0.792074,-0.000000,-0.000000,9.810000
9.043308,1.095761,-0.624261,0.886976,-0.000000,-0.000000,9.810000
9.063355,1.578999,-0.077754,1.146594,-0.000000,-0.000000,9.810000
9.083424,2.000000,-1.422749,1.516386,-0.000000,-0.000000,9.810000
9.103517,2.000000,-2.000000,1.327672,-0.000000,-0.000000,9.810000
9.123594,2.000000,-1.563466,0.328471,-0.000000,-0.000000,9.810000
9.143682,-0.697564,2.000000,0.122304,-0.000000,-0.000000,9.810000
9.163764,0.031110,0.252767,0.549910,-0.000000,-0.000000,9.810000
9.185128,0.312545,1.078526,-0.101316,-0.000000,-0.000000,9.810000
9.205655,-0.176147,0.659647,-0.272577,-0.000000,-0.000000,9.810000
9.224767,0.156556,-0.151931,-0.631460,-0.000000,-0.000000,9.810000
9.244163,-0.668112,0.729460,-0.108952,-0.000000,-0.000000,9.810000
9.266987,-0.874279,-0.304647,0.564090,-0.000000,-0.000000,9.810000
9.285386,-0.793558,-0.444274,0.598997,-0.000000,-0.000000,9.810000
9.305669,-1.032449,-0.166112,0.732078,-0.000000,-0.000000,9.810000
9.325724,-1.314975,-0.684256,0.988424,-0.000000,-0.000000,9.810000
9.348575,-1.150259,-0.086481,1.390940,-0.000000,-0.000000,9.810000
9.365025,-0.989907,-0.357007,2.000000,-0.000000,-0.000000,9.810000
9.385060,-0.848099,0.020420,2.000000,-0.000000,-0.000000,9.810000
9.405076,-0.828464,0.977079,2.000000,-0.000000,-0.000000,9.810000
9.424977,-2.000000,0.670555,2.000000,-0.000000,-0.000000,9.810000
9.445132,-2.000000,1.904285,1.269858,-0.000000,-0.000000,9.810000
9.467142,-2.000000,2.000000,0.596815,-0.000000,-0.000000,9.810000
9.487455,-2.000000,2.000000,0.167028,-0.000000,-0.000000,9.810000
9.505301,-1.636770,0.500386,0.174664,-0.000000,-0.000000,9.810000
9.526503,-1.376061,0.337852,0.420101,-0.000000,-0.000000,9.810000
9.546812,-1.421876,-0.536994,0.268475,-0.000000,-0.000000,9.810000
9.567269,-1.436057,-0.495543,0.254294,-0.000000,-0.000000,9.810000
9.585839,-1.064084,-0.171566,0.204116,-0.000000,-0.000000,9.810000
9.606012,0.331089,-1.083500,0.749532,-0.000000,-0.000000,9.810000
9.625896,1.239751,-1.685639,1.360397,-0.000000,-0.000000,9.810000
9.646085,2.000000,-2.000000,0.917520,-0.000000,-0.000000,9.810000
9.666203,2.000000,-1.706365,0.255385,-0.000000,-0.000000,9.810000
9.686244,2.000000,-1.646369,-0.399113,-0.000000,-0.000000,9.810000
9.707272,2.000000,-0.575173,-1.783377,-0.000000,-0.000000,9.810000
9.727206,2.000000,-1.579828,-2.000000,-0.000000,-0.000000,9.810000
9.746643,2.000000,-1.857990,-2.000000,-0.000000,-0.000000,9.810000
9.767882,-2.000000,0.324762,0.826981,-0.000000,-0.000000,9.810000
9.787065,-0.357225,-0.016668,0.340470,-0.000000,-0.000000,9.810000
9.807064,0.164192,-0.292648,-0.172220,-0.000000,-0.000000,9.810000
9.829293,-0.344135,-1.114044,0.338288,-0.000000,-0.000000,9.810000
9.850917,-0.832828,0.299673,0.846616,-0.000000,-0.000000,9.810000
9.868310,-0.673566,0.601833,1.278585,-0.000000,-0.000000,9.810000
9.887328,-0.718290,0.705462,1.257859,-0.000000,-0.000000,9.810000
9.907397,-1.296431,1.150521,1.466208,-0.000000,-0.000000,9.810000
9.927517,-1.224436,1.461408,2.000000,-0.000000,-0.000000,9.810000
9.947638,-1.905114,1.803929,2.000000,-0.000000,-0.000000,9.810000
9.967537,-2.000000,1.470134,1.301492,-0.000000,-0.000000,9.810000
9.989262,-2.000000,-0.189019,1.229497,-0.000000,-0.000000,9.810000
10.007832,-1.428421,0.401120,1.700736,-0.000000,-0.000000,9.810000
10.027830,-2.000000,0.544019,0.999332,-0.000000,-0.000000,9.810000
10.047909,-1.494962,-0.214108,0.657902,-0.000000,-0.000000,9.810000
10.068047,-0.093244,-0.422457,0.704808,-0.000000,-0.000000,9.810000
10.088090,1.558274,-1.688911,1.290584,-0.000000,-0.000000,9.810000
10.108227,2.000000,-2.000000,1.786912,-0.000000,-0.000000,9.810000
10.128421,2.000000,-2.000000,1.574200,-0.000000,-0.000000,9.810000
10.148494,2.000000,-1.920168,1.664739,-0.000000,-0.000000,9.810000
10.168517,2.000000,0.440390,1.386577,-0.000000,-0.000000,9.810000
10.188568,2.000000,-1.430385,0.957880,-0.000000,-0.000000,9.810000
10.210523,-1.762215,2.000000,1.630923,-0.000000,-0.000000,9.810000
10.228919,1.297565,-1.541649,-0.083863,-0.000000,-0.000000,9.810000
10.248979,-0.325591,2.000000,0.059036,-0.000000,-0.000000,9.810000
10.268883,-0.832828,-0.232652,0.449553,-0.000000,-0.000000,9.810000
10.289088,-0.998634,0.240768,0.257567,-0.000000,-0.000000,9.810000
10.310593,0.080198,-0.522813,-0.478744,-0.000000,-0.000000,9.810000
10.332712,-1.020450,-0.590445,0.509549,-0.000000,-0.000000,9.810000
10.350604,-1.090264,-0.147568,1.182591,-0.000000,-0.000000,9.810000
10.369399,-0.948456,-0.074482,1.392031,-0.000000,-0.000000,9.810000
10.389479,-1.163349,-0.323191,1.513113,-0.000000,-0.000000,9.810000
10.409588,-1.432784,0.248404,1.789093,-0.000000,-0.000000,9.810000
10.429659,-1.609499,0.175318,2.000000,-0.000000,-0.000000,9.810000
10.449788,-1.281159,1.139613,2.000000,-0.000000,-0.000000,9.810000
10.469865,-2.000000,-0.287194,0.753895,-0.000000,-0.000000,9.810000
10.489993,-2.000000,0.936718,0.402647,-0.000000,-0.000000,9.810000
10.510189,-2.000000,1.358870,0.111396,-0.000000,-0.000000,9.810000
10.530288,-2.000000,1.245423,-0.024958,-0.000000,-0.000000,9.810000
10.550884,-2.000000,1.695936,0.549910,-0.000000,-0.000000,9.810000
10.571362,-2.000000,0.322580,1.311309,-0.000000,-0.000000,9.810000
10.590717,-1.430603,-0.335190,1.674556,-0.000000,-0.000000,9.810000
10.611669,-1.274614,-0.690801,1.592744,-0.000000,-0.000000,9.810000
10.630698,-0.601571,-0.480271,1.409484,-0.000000,-0.000000,9.810000
10.653032,0.068199,-0.900241,1.084417,-0.000000,-0.000000,9.810000
10.672492,0.638703,-0.419184,0.816072,-0.000000,-0.000000,9.810000
10.691027,1.658630,-1.198038,0.997150,-0.000000,-0.000000,9.810000
10.711172,2.000000,-2.000000,0.576090,-0.000000,-0.000000,9.810000
10.731234,2.000000,-1.564557,-0.052229,-0.000000,-0.000000,9.810000
10.751314,2.000000,-2.000000,-1.217236,-0.000000,-0.000000,9.810000
10.772717,2.000000,-2.000000,-2.000000,-0.000000,-0.000000,9.810000
10.791659,2.000000,-0.988598,-2.000000,-0.000000,-0.000000,9.810000
10.811655,1.486279,-1.118407,-0.352207,-0.000000,-0.000000,9.810000
10.831598,0.024566,-0.378824,0.765894,-0.000000,-0.000000,9.810000
10.851781,-0.299411,0.415301,0.539001,-0.000000,-0.000000,9.810000
10.871849,-0.508851,0.229860,0.444099,-0.000000,-0.000000,9.810000
10.891992,-1.126261,0.846179,0.560818,-0.000000,-0.000000,9.810000
10.912001,-1.214618,0.930173,0.857524,-0.000000,-0.000000,9.810000
10.932172,-1.285522,0.635649,0.824799,-0.000000,-0.000000,9.810000
10.952216,-1.788395,1.770113,0.856433,-0.000000,-0.000000,9.810000
10.972357,-2.000000,1.554128,0.824799,-0.000000,-0.000000,9.810000
10.992415,-2.000000,1.006531,0.604451,-0.000000,-0.000000,9.810000
11.012491,-2.000000,1.301056,0.720079,-0.000000,-0.000000,9.810000
11.032553,-2.000000,1.124341,1.251314,-0.000000,-0.000000,9.810000
11.053293,-0.773923,-0.743161,1.154230,-0.000000,-0.000000,9.810000
11.073340,-0.057247,-0.805339,1.284039,-0.000000,-0.000000,9.810000
11.092813,-0.122697,0.617105,0.858615,-0.000000,-0.000000,9.810000
11.112991,0.764149,-0.615534,0.632813,-0.000000,-0.000000,9.810000
11.133067,2.000000,-1.196947,1.034238,-0.000000,-0.000000,9.810000
11.153112,2.000000,-1.588555,1.413848,-0.000000,-0.000000,9.810000
11.176524,2.000000,-2.000000,1.390940,-0.000000,-0.000000,9.810000
11.193306,2.000000,-2.000000,1.330944,-0.000000,-0.000000,9.810000
11.213307,2.000000,-1.684548,1.168411,-0.000000,-0.000000,9.810000
11.233483,-2.000000,2.000000,2.000000,-0.000000,-0.000000,9.810000
11.253556,1.794984,-0.595899,0.433191,-0.000000,-0.000000,9.810000
11.274228,-0.416130,-0.046120,-0.156949,-0.000000,-0.000000,9.810000
11.293813,-0.591754,1.161429,-0.154767,-0.000000,-0.000000,9.810000
11.313858,-1.573502,0.285492,0.277202,-0.000000,-0.000000,9.810000
11.334034,-1.056448,-0.658076,0.473551,-0.000000,-0.000000,9.810000
11.354096,-0.851372,-0.253378,0.432100,-0.000000,-0.000000,9.810000
11.374115,-0.519759,-0.697346,0.693899,-0.000000,-0.000000,9.810000
11.394230,-0.530667,-0.719163,1.335308,-0.000000,-0.000000,9.810000
11.414280,-0.554666,-0.675530,2.000000,-0.000000,-0.000000,9.810000
11.436427,-0.592845,-0.450819,2.000000,-0.000000,-0.000000,9.810000
11.454602,-0.217599,0.618196,2.000000,-0.000000,-0.000000,9.810000
11.474637,-1.000815,0.305127,2.000000,-0.000000,-0.000000,9.810000
11.494711,-2.000000,0.176409,1.633105,-0.000000,-0.000000,9.810000
11.515365,-2.000000,0.458934,1.105142,-0.000000,-0.000000,9.810000
11.536188,-2.000000,1.693755,0.918610,-0.000000,-0.000000,9.810000
11.555056,-2.000000,1.239969,0.831344,-0.000000,-0.000000,9.810000
11.575099,-2.000000,2.000000,1.437846,-0.000000,-0.000000,9.810000
11.595253,-0.718290,0.189499,1.556746,-0.000000,-0.000000,9.810000
11.615331,-1.390242,0.225497,0.882613,-0.000000,-0.000000,9.810000
11.635492,-0.316865,-0.311192,0.225933,-0.000000,-0.000000,9.810000
11.656218,0.357269,-0.524995,-0.718727,-0.000000,-0.000000,9.810000
11.675579,1.345562,-0.217381,-1.018705,-0.000000,-0.000000,9.810000
11.695710,1.825527,-0.750797,-0.847445,-0.000000,-0.000000,9.810000
11.715782,2.000000,-1.498016,-0.599826,-0.000000,-0.000000,9.810000
11.739876,2.000000,-1.424930,0.244477,-0.000000,-0.000000,9.810000
11.757119,1.943337,-1.547104,0.488823,-0.000000,-0.000000,9.810000
11.777476,1.990243,-1.290758,0.073217,-0.000000,-0.000000,9.810000
11.798240,2.000000,-1.554739,0.134303,-0.000000,-0.000000,9.810000
11.817801,2.000000,-1.835083,0.733169,-0.000000,-0.000000,9.810000
11.836386,0.136921,0.334580,0.656811,-0.000000,-0.000000,9.810000
11.856472,-0.673566,-0.077754,0.592452,-0.000000,-0.000000,9.810000
11.876574,-0.149967,0.657466,-0.035867,-0.000000,-0.000000,9.810000
11.896583,0.094379,0.186227,-0.190764,-0.000000,-0.000000,9.810000
11.916719,-0.692110,1.099252,-0.182038,-0.000000,-0.000000,9.810000
11.936760,-0.864462,1.733025,-0.510378,-0.000000,-0.000000,9.810000
11.960612,-0.021249,0.463298,-0.338027,-0.000000,-0.000000,9.810000
11.977828,0.575435,0.455662,0.685173,-0.000000,-0.000000,9.810000
11.998266,0.274366,0.510203,0.603360,-0.000000,-0.000000,9.810000
12.018918,0.544892,1.210517,0.305564,-0.000000,-0.000000,9.810000
12.039021,1.353197,0.514567,0.335016,-0.000000,-0.000000,9.810000
