timestamp,gx,gy,gz,ax,ay,az
0.000000,0.046906,-0.165806,-0.014181,0.183818,0.861608,-9.709409
0.020252,0.052360,-0.173442,-0.014181,0.122745,0.881367,-9.732761
0.040310,0.021817,-0.111265,-0.005454,-0.211360,0.998124,-10.462044
0.060407,0.021817,0.354520,-0.250891,-2.145339,2.944677,-15.507153
0.080460,1.335177,0.110174,-0.623955,0.614921,1.432222,-7.289841
0.100569,0.860665,-0.005454,-0.307614,1.414259,0.846041,-7.100634
0.120621,0.273799,-0.237801,0.313068,1.411265,0.038919,-8.228688
0.140681,0.078540,-0.211621,0.287979,0.440085,-1.159788,-9.865684
0.160851,-0.128718,-0.067632,-0.069813,0.593965,-0.207768,-10.066267
0.181245,-0.040361,-0.218166,0.008727,0.560435,1.243015,-9.514215
0.201047,0.103629,-0.116719,0.022907,0.587379,0.426912,-9.449550
0.221097,0.040361,-0.189805,-0.055632,0.294587,0.241298,-10.489587
0.241170,0.026180,-0.199622,-0.007636,0.735870,1.116678,-9.526789
0.261273,0.058905,-0.239983,-0.053451,0.004790,0.521516,-9.200468
0.281460,0.003272,-0.188714,-0.064359,0.134720,0.310155,-10.351873
0.301499,0.013090,-0.173442,0.002182,0.780776,0.809517,-10.036928
0.321626,0.070904,-0.186532,-0.004363,0.194595,0.508343,-9.392668
0.341691,0.043633,-0.138536,-0.023998,0.572410,0.495769,-9.723779
0.361858,0.005454,-0.174533,0.019635,0.532293,0.499960,-9.629176
0.381927,0.041452,-0.139626,-0.050178,0.160466,0.682581,-9.639954
0.402020,0.074176,-0.153807,0.002182,0.580193,0.410147,-9.623188
0.422104,0.020726,-0.165806,-0.029452,0.440684,0.551453,-9.951306
0.442225,0.039270,-0.162534,-0.003272,0.387394,0.739462,-9.814191
0.462264,0.056723,-0.158170,-0.011999,0.196990,0.309556,-9.489666
0.482352,0.040361,-0.169079,-0.027271,0.394579,0.715512,-9.924961
0.502518,0.049087,-0.163625,-0.001091,0.288001,0.655637,-9.940529
0.522665,0.047997,-0.149444,-0.035997,0.543071,0.367037,-9.453741
0.542641,0.038179,-0.178896,0.007636,0.311951,0.644260,-9.774075
0.562942,0.051269,-0.147262,-0.023998,0.298779,0.600551,-9.871672
0.582864,0.030543,-0.174533,-0.006545,0.308359,0.498763,-9.769285
0.602976,0.040361,-0.163625,-0.028362,0.279619,0.584385,-9.652527
0.623029,0.055632,-0.171260,-0.018544,0.614323,0.560435,-9.627979
0.643082,0.040361,-0.178896,-0.014181,0.292192,0.497565,-9.904005
0.663200,0.038179,-0.161443,-0.023998,0.329315,0.644260,-9.763896
0.683336,0.043633,-0.172351,-0.005454,0.327519,0.508942,-9.661509
0.703408,0.044724,-0.162534,-0.038179,0.288600,0.573607,-9.841734
0.723543,0.043633,-0.171260,-0.006545,0.411345,0.615520,-9.783655
0.743648,0.043633,-0.164715,-0.030543,0.295785,0.608335,-9.816586
0.763784,0.052360,-0.173442,-0.025089,0.501757,0.465831,-9.607022
0.783834,0.031634,-0.177805,-0.006545,0.156874,0.498164,-9.935739
0.803891,0.046906,-0.147262,-0.035997,0.088017,0.818498,-10.062675
0.824011,0.051269,-0.181078,-0.009817,0.513133,0.421523,-9.657916
0.844158,0.030543,-0.177805,-0.022907,0.247286,0.452659,-9.777667
0.864189,0.057814,-0.158170,-0.006545,0.596959,0.729283,-9.624386
0.884287,0.054542,-0.183260,-0.005454,0.432900,0.492775,-9.699230
0.904379,0.027271,-0.148353,-0.022907,0.265248,0.545466,-9.789044
0.924546,0.040361,-0.158170,-0.005454,0.443079,0.705932,-9.632170
0.944567,0.047997,-0.167988,-0.029452,0.461041,0.477806,-9.750723
0.964660,0.038179,-0.166897,-0.003272,0.400567,0.573008,-9.841135
0.984802,0.050178,-0.161443,-0.016362,0.360450,0.680784,-9.684860
1.004851,0.044724,-0.163625,-0.014181,0.316143,0.408351,-9.782457
1.024950,0.035997,-0.173442,-0.022907,0.289797,0.506547,-9.798025
1.044681,0.051269,-0.172351,-0.026180,0.437690,0.819097,-9.750125
1.064694,0.054542,-0.151625,-0.018544,0.256267,0.350870,-9.647139
1.084832,0.016362,-0.131991,-0.027271,0.480800,0.467029,-9.903406
1.104846,0.027271,-0.165806,-0.010908,0.452060,0.834664,-9.674083
1.124964,0.059996,-0.170170,-0.019635,0.185015,0.519120,-9.697434
1.145074,0.045815,-0.171260,-0.037088,0.334704,0.510738,-10.001602
1.165166,0.045815,-0.181078,-0.009817,0.496368,0.764011,-9.631571
1.185583,0.081812,-0.188714,-0.015272,0.404758,0.498763,-9.593251
1.205363,0.030543,-0.107992,0.016362,0.349074,0.900527,-10.262659
1.225513,0.153807,-0.151625,0.078540,0.266446,0.935255,-9.126222
1.245530,0.038179,-0.155989,-0.059996,-0.051493,-0.481399,-10.505753
1.265602,-0.017453,-0.152716,-0.051269,0.871188,0.838257,-9.337582
1.285665,0.103629,-0.188714,0.050178,0.456251,0.799338,-9.559122
1.306373,0.062177,-0.148353,-0.057814,0.343685,-0.141905,-10.120754
1.326463,0.034907,-0.183260,0.068722,0.747845,0.706531,-9.538165
1.346499,0.088357,-0.130900,0.226893,0.499960,0.390987,-9.641750
1.366600,-0.006545,-0.176715,0.151625,0.335303,0.249082,-10.078841
1.386656,0.018544,-0.237801,0.001091,0.178429,1.498683,-9.619596
1.406783,0.083994,-0.160352,-0.147262,0.019759,0.947829,-9.554930
1.426839,0.033816,-0.188714,-0.217075,0.699346,-0.233514,-9.250763
1.446959,0.067632,-0.159261,-0.082903,0.783171,0.450264,-8.951984
1.467143,0.040361,-0.167988,0.057814,0.170046,0.957409,-10.671010
1.487174,0.016362,-0.200713,-0.069813,0.026345,0.486788,-10.062675
1.507302,0.145080,-0.116719,0.004363,0.700543,1.293909,-9.698033
1.527409,0.076358,-0.206167,0.102538,-0.334704,0.096998,-9.613608
1.547447,0.000000,-0.139626,-0.015272,-0.096998,0.402363,-9.868079
1.567595,0.021817,-0.137445,-0.004363,0.651445,0.431104,-10.418934
1.587638,0.014181,-0.154898,-0.001091,1.307681,0.563428,-9.183104
1.607697,0.064359,-0.189805,0.054542,0.978964,0.583786,-9.709409
1.627837,0.026180,-0.235619,0.075267,0.176633,0.206570,-9.835148
1.647995,-0.011999,-0.201804,-0.047997,-0.301772,0.432301,-9.771680
1.668067,0.059996,-0.162534,-0.018544,0.557441,0.684377,-9.713002
1.688145,0.095993,-0.162534,0.177805,0.458646,0.188608,-9.513018
1.708311,0.097084,-0.131991,-0.032725,-0.413740,1.046025,-10.089619
1.728341,0.030543,-0.135263,-0.331613,0.079036,1.032253,-9.147178
1.748432,0.241074,-0.116719,-0.344703,0.916694,1.271755,-9.979448
1.768492,0.047997,-0.147262,-0.188714,0.813708,0.402962,-7.940687
1.788597,0.112356,-0.159261,-0.262890,0.641865,-0.249082,-10.045311
1.808677,0.006545,-0.197440,0.049087,0.497565,-0.186812,-9.257349
1.828753,0.016362,-0.150535,0.065450,0.248483,0.677791,-9.228010
1.848848,0.023998,-0.129809,-0.008727,0.146695,0.187410,-9.636361
1.869008,0.030543,-0.178896,-0.027271,0.659828,0.129331,-8.943003
1.889116,0.020726,-0.143990,0.003272,1.238225,0.337698,-10.498568
1.909208,0.018544,-0.186532,0.097084,0.630489,0.068258,-9.022039
1.929214,-0.099266,-0.220348,0.226893,1.050216,1.192720,-10.584789
1.949384,0.117810,-0.191986,0.246528,0.241298,0.125739,-10.193203
1.969467,0.197440,-0.191986,0.235619,0.662223,-0.920885,-10.140513
1.989518,-0.016362,-0.302160,0.342521,0.601150,-0.476609,-8.887917
2.009639,-0.128718,-0.014181,0.155989,-1.217867,2.521956,-9.814790
2.029823,0.446150,-0.227984,-0.243255,-1.423240,2.134561,-10.111772
2.049440,0.303251,0.075267,-0.506145,0.274230,0.756826,-10.386002
2.070077,0.139626,-0.186532,-0.370882,0.432900,1.131647,-10.612930
2.089710,0.282525,0.032725,-0.481056,0.466430,0.016765,-9.320219
2.110191,0.167988,-0.097084,-0.346884,1.048420,-0.620310,-11.044633
2.130263,0.218166,-0.340339,-0.155989,0.002994,-1.061592,-9.271719
2.150432,-0.159261,-0.519235,0.050178,-0.068857,-0.861010,-9.109457
2.170465,-0.179987,0.064359,0.013090,0.904719,-1.177751,-10.966794
2.190935,-0.280344,-0.282525,0.065450,0.069456,0.333506,-10.034533
2.210688,-0.404698,-0.170170,0.253073,0.840053,1.509461,-9.538764
2.230833,-0.380700,-0.349066,0.434151,0.790955,2.750680,-11.113489
2.250963,0.193077,-0.099266,0.355611,0.232916,1.338816,-8.944200
2.270956,-0.079631,-0.318523,0.367610,-0.164059,0.564027,-9.183702
2.291058,0.529053,-0.098175,0.525780,-1.414858,0.082628,-14.892830
2.311138,0.467966,-0.362156,0.909753,1.440604,-0.137115,-7.035969
2.331193,0.129809,0.538870,0.592321,-2.708168,0.742456,-11.654764
2.351309,-0.025089,-0.011999,-0.259618,-1.416055,0.606539,-7.786807
2.371381,0.076358,-0.011999,-0.739583,1.012495,2.234553,-9.411229
2.391496,0.323977,-0.020726,-1.030835,2.533332,1.895059,-9.298065
2.411600,0.570504,-0.527962,-1.060288,2.627935,1.650767,-10.506352
2.431689,0.375246,-0.654498,-0.416697,2.301015,-0.641266,-9.010662
2.451807,-0.059996,0.016362,0.261799,0.722697,-1.815425,-10.306368
2.471889,-0.195259,-0.045815,0.242164,-0.457449,-1.944157,-9.564510
2.491982,0.160352,-0.519235,0.025089,0.472418,-1.408271,-8.200547
2.512110,-0.490874,-0.498510,-0.173442,0.007784,-1.902244,-7.135961
2.532166,-0.340339,-0.635954,-0.014181,-0.702938,1.932781,-13.475577
2.552234,-0.604320,-0.022907,0.594503,1.324446,2.850073,-8.899893
2.572594,-0.157080,-0.625046,0.902117,-1.431024,3.769761,-10.690768
2.592498,0.070904,-0.441786,0.741765,-0.507145,2.393822,-9.644744
2.612589,0.812669,0.201804,0.508327,-0.070653,1.798660,-12.676240
2.632697,0.638136,-0.184350,1.046107,0.975970,-0.717308,-10.013577
2.652726,0.825759,-0.315250,0.857393,-4.776866,0.838257,-14.053975
2.672839,0.014181,0.225802,0.242164,-2.120191,-0.371827,-6.695277
2.692944,-0.078540,0.473421,-0.281434,-1.792672,-1.484912,-12.436738
2.713058,-0.079631,0.421061,-0.884664,0.099992,-0.765807,-6.429430
2.733086,-0.164715,0.302160,-1.070105,1.178948,2.169888,-14.224620
2.753216,0.019635,-0.092721,-0.730857,4.945715,1.275947,-7.519164
2.773302,0.041452,-0.227984,0.226893,3.868555,0.699346,-10.211765
2.793509,-0.116719,-0.080721,0.447241,0.589774,-1.598676,-10.187814
2.813132,0.222529,-0.460331,-0.055632,-0.226928,-1.924398,-8.126301
2.833183,0.082903,-1.061378,-0.365428,-0.214953,-2.057322,-3.982917
2.853247,-0.849757,-0.631591,-0.275980,-3.826044,0.132325,-15.523319
2.873868,-0.783217,-0.911935,0.844303,2.947072,4.016448,-14.655125
2.893883,0.235619,-0.270526,1.469349,-1.509461,2.675836,-8.156239
2.913963,0.001091,-0.694859,1.329723,-2.151925,3.402125,-11.924203
2.934088,0.451604,0.263981,0.874846,-1.507665,0.948428,-9.386082
2.954205,0.695950,0.586867,0.883573,-1.568738,1.753753,-11.848760
2.974254,0.677406,-0.520326,0.212712,-2.624343,-0.296982,-13.214520
2.994398,0.620683,-0.136354,0.007636,0.849034,0.260458,-6.072572
3.014529,0.215984,0.616319,-0.167988,-0.934656,-1.860930,-9.710607
3.034627,0.033816,0.538870,-0.592321,1.918411,-1.927991,-6.792275
3.054706,-0.706858,0.609774,-0.757037,0.071851,-2.375859,-7.226373
3.074805,-0.123264,-0.270526,-1.359175,1.802851,2.483036,-15.273638
3.094925,-0.118901,-0.131991,-0.809396,3.420687,0.804727,-6.829997
3.114970,-0.013090,-0.353429,0.151625,3.904481,0.576002,-7.085067
3.135028,0.187623,-0.820305,0.215984,-1.037642,-0.834664,-11.650573
3.155137,0.416697,-0.667588,-0.390517,0.579595,-2.157314,-6.968309
3.175271,0.022907,-1.103921,-0.326158,-0.644260,-0.594564,-8.586145
3.195788,-0.611956,-0.919570,0.958840,5.105583,3.054249,-13.677358
3.215526,-0.135263,-0.371973,1.661335,-0.802930,1.090931,-6.213279
3.235586,-0.580322,-0.787580,1.647154,-0.127535,2.751877,-9.527986
3.255704,0.940296,0.568323,1.246820,-2.844684,2.394421,-15.697557
3.275783,0.565050,0.112356,1.207550,0.340692,0.822090,-8.673563
3.295791,0.844303,-0.658862,0.481056,-3.936215,-0.514929,-16.022681
3.315949,0.544325,-0.810487,0.242164,0.680186,0.426912,-6.447991
3.336080,0.512690,0.334885,0.181078,-0.821492,-1.663341,-8.635842
3.356144,0.082903,0.809396,-0.522508,-0.031135,-1.986070,-7.434141
3.376291,-0.586867,1.315542,-1.087558,0.034129,-1.884880,-5.028344
3.396345,-0.931569,0.296706,-1.992948,5.475015,0.856818,-14.720389
3.416474,-0.294524,0.662134,-1.762783,3.572770,1.397494,-9.845327
3.436704,-0.526871,-0.415607,-0.652317,4.828359,2.347119,-8.743618
3.456640,0.447241,-0.653408,0.400335,3.290757,1.146017,-7.269483
3.476729,0.061087,-0.368701,0.423242,1.298101,-2.168091,-11.282937
3.496764,0.379609,-0.829031,0.271617,-0.252076,-1.599274,-9.420211
3.516939,-1.412626,0.356702,1.312269,-0.016765,1.407673,-12.950469
3.536947,-0.534507,-1.880592,1.662426,-4.537963,1.264570,-8.729247
3.557086,-0.880300,-0.657771,1.778054,-1.672322,1.371747,-7.270082
3.577202,0.667588,1.136646,1.244638,-3.339256,3.460803,-16.185542
3.597327,0.726493,0.107992,0.724312,-1.281335,1.338816,-9.275911
3.617368,0.347975,-0.807215,0.249800,-0.957409,-0.084424,-14.638958
3.637052,0.531235,-0.968658,0.534507,0.342488,0.284409,-8.908275
3.657073,0.622864,0.335976,0.610865,-1.575923,-0.892145,-9.016650
3.677207,0.092721,0.982839,-0.302160,-2.478246,-2.312391,-9.969868
3.697252,-0.623955,0.954477,-1.075559,0.373024,-1.026266,-1.204096
3.717352,-1.245729,1.135555,-1.958041,3.787125,0.621508,-10.826686
3.737483,1.330814,0.002182,-2.709624,1.963916,4.217031,-11.038645
3.758188,0.227984,-0.297797,-1.810779,4.155359,2.647694,-8.218510
3.778213,0.225802,-0.043633,-0.301069,2.522554,2.388433,-9.504036
3.798248,0.820305,-0.889027,0.126536,3.363805,-0.240699,-5.399572
3.817920,1.305724,-0.579231,-0.055632,-0.719105,-2.985392,-12.916939
3.837932,-0.394881,0.417788,0.527962,4.726571,-0.834066,-11.553574
3.858566,-0.775581,-0.992656,1.530436,-0.059875,-1.329236,-2.835703
3.878670,-1.579523,-0.801761,2.020219,-0.092208,-0.441282,-7.264094
3.898743,-1.013382,-0.404698,2.507820,-0.548459,-1.020278,-14.210848
3.918837,0.238892,-0.083994,1.510801,-3.369792,0.817300,-14.489868
3.938952,0.062177,-0.979566,0.098175,-4.040398,1.260379,-14.973662
3.959036,0.817032,-0.065450,0.196350,0.572410,2.071093,-12.364887
3.979164,0.805033,0.209440,0.742856,-0.714315,1.174158,-7.686815
3.999202,0.244346,1.051561,0.406880,-1.572929,-0.264051,-6.563551
4.019302,-0.850848,1.257728,-0.306523,-0.037123,-1.337618,-3.183580
4.039398,-1.856594,2.188207,-1.503165,2.921325,-0.522114,-5.524113
4.059659,0.716676,-1.570796,-2.732531,10.087224,7.401209,-16.395705
4.079684,2.732531,-0.004363,-1.703878,1.982477,2.957250,-5.135521
4.099778,0.078540,-0.781035,-1.879501,-4.799619,4.861890,-18.906284
4.119843,1.389718,-1.215185,-0.596684,5.498366,0.897534,-10.730885
4.139931,1.347176,0.361065,-0.634864,-2.524351,-4.312233,-8.207732
4.160015,1.084286,-0.160352,-0.762491,2.451901,-2.875221,-8.137678
4.180046,-0.687223,-0.293433,0.273799,4.733157,-1.171763,-6.431825
4.200608,-1.497711,-0.557415,1.308997,-0.116757,-2.286046,-4.864883
4.220333,-2.013674,-0.745037,1.912226,3.883524,-2.921325,-10.306967
4.240402,-2.489276,-0.973021,1.982040,-1.687890,-0.128134,-10.319540
4.260495,-1.303543,-0.268344,1.162826,-4.712800,4.368516,-19.620000
4.280613,0.967567,0.357792,-0.467966,-3.321293,1.930386,-16.095130
4.300756,0.976294,0.269435,0.119991,0.653840,1.386118,-7.091653
4.320734,0.627228,0.926115,0.487601,1.104703,0.128134,-3.481161
4.340866,-0.422152,1.256637,0.208349,0.304766,-1.066981,-0.546663
4.360978,-1.457350,1.730058,-0.734129,-1.599274,1.595682,-11.085947
4.381057,1.178097,-0.719948,-2.000584,6.014493,5.081633,-8.574170
4.401145,2.550362,-0.466876,-1.296998,5.617518,2.847678,-3.104544
4.421171,0.765763,0.714494,-0.980657,2.382446,8.238268,-19.344573
4.441359,1.795507,-1.175916,-0.104720,1.405278,0.947230,-9.742341
4.461502,1.096285,-0.439605,-0.549779,-1.727408,-3.175197,-7.544312
4.481567,1.184642,-0.545415,-0.863938,0.622106,-3.666775,-10.720107
4.501661,0.042542,-0.186532,-0.526871,0.144899,-3.362607,-8.380173
4.521727,-1.101739,-1.896955,1.025381,1.800456,-0.897534,-4.996011
4.541847,-2.014764,-1.305724,1.677698,-2.130370,-2.094445,-5.554649
4.561985,-2.196933,-1.047198,2.208932,1.932182,-0.814905,-15.678995
4.582014,-0.776672,-0.229074,2.227476,-5.464836,3.794908,-19.620000
4.602177,-0.222529,0.053451,0.853030,0.083826,1.560954,-12.454102
4.622226,0.716676,0.297797,0.651226,-1.325643,0.638871,-8.987910
4.642323,1.368993,0.813760,0.250891,-3.482957,0.953817,-11.652369
4.662541,0.731947,1.293725,-0.391608,0.646655,-0.467029,-0.502355
4.682578,-0.822486,0.954477,-0.712313,-2.309398,0.386796,-3.660787
4.702713,-0.487601,-0.580322,-2.261292,5.024751,9.269324,-19.620000
4.722733,1.978767,-0.985020,-2.044217,5.882767,3.351231,-7.423363
4.742794,1.539162,-0.889027,-1.596976,-2.648892,3.925437,-14.197077
4.762875,1.673334,-0.980657,0.292343,4.203259,0.208965,-9.601633
4.783015,1.392991,-0.186532,0.107992,1.966311,-1.759142,-3.261418
4.803043,0.917389,-0.642499,-0.465785,1.977687,-3.704496,-8.745414
4.823140,0.337067,-0.346884,-0.541052,0.675396,-4.036207,-8.158634
4.843318,-1.637337,0.100356,0.430878,5.140311,-1.778302,-4.870272
4.863413,-1.970040,-2.300562,1.830414,0.936453,-1.863924,-7.538324
4.883540,-2.480549,-1.630792,2.671445,-1.439407,-1.022673,-11.514655
4.903570,-1.242456,-0.091630,2.623448,1.551374,1.386118,-9.008866
4.923658,1.311179,0.032725,0.366519,-5.264852,1.266367,-19.620000
4.943749,1.418080,0.462512,0.045815,2.527943,1.695075,-7.447912
4.963880,1.184642,0.920661,0.429787,0.166454,0.698148,-5.486391
4.983877,0.760309,0.872665,0.077449,-0.276625,-0.613724,-4.027824
5.004051,-0.286888,0.725402,-0.631591,0.164059,-0.942440,-0.965193
5.024225,-0.755946,1.644973,-1.577341,-2.451302,0.271236,-7.363488
5.044355,0.453786,-0.462512,-3.601923,3.387755,8.566386,-19.620000
5.064412,2.695443,-0.483238,-2.932153,8.735235,1.840573,-1.629811
5.084452,-1.036289,0.827941,-2.260201,-0.165256,1.244213,-8.484955
5.104536,1.082104,-1.637337,-1.713695,2.183659,-0.139510,-13.403128
5.124670,1.349358,0.699223,-1.454077,0.017963,-2.073488,-10.153087
5.144704,0.119991,-0.261799,-0.272708,2.991978,-1.539998,-5.827083
5.164847,-0.734129,-0.894481,0.574868,2.198628,-1.382525,-5.580396
5.184907,-1.262091,-1.664608,1.745329,2.851870,-0.359253,-7.803572
5.205425,-1.772600,-1.832596,3.413210,3.885919,1.383124,-11.946956
5.225148,-0.418879,-0.465785,3.848451,-4.555926,0.735870,-11.946956
5.245234,0.854121,-0.901026,1.588250,-5.804929,0.264650,-19.620000
5.265525,1.888228,-0.362156,0.022907,0.256866,1.933978,-12.355906
5.285418,1.939497,0.487601,0.558505,0.176633,0.862806,-3.574567
5.305521,1.373356,0.725402,0.367610,-0.636476,-0.686772,-4.996011
5.325629,0.510509,0.787580,-0.510509,-0.941243,-0.638273,-3.311713
5.345687,-0.652317,1.273000,-1.061378,-6.961723,-0.823887,-10.059681
5.365731,-1.819506,1.448623,-2.194752,-0.381407,-1.098715,-6.643784
5.385924,0.571595,-0.476693,-2.781618,4.723577,3.068619,-18.611098
5.405956,0.459240,-0.273799,-1.454077,3.672164,-0.038320,-4.991819
5.425665,0.506145,-0.807215,-0.573777,5.218149,-0.758622,-5.799540
5.445710,0.074176,-0.497419,-0.321795,1.090931,-2.018403,-7.685019
5.465807,-0.202895,-0.826850,-0.013090,4.884642,-1.693279,-8.726852
5.485866,-1.545707,-0.181078,1.046107,4.668492,-0.098196,-10.223141
5.505977,-1.151917,-1.966768,2.228567,3.644022,0.872985,-6.379135
5.526007,-2.159845,-2.682353,3.684826,-1.104703,1.147813,-12.837305
5.546086,-0.311978,-0.938114,3.588833,-9.298663,2.348317,-19.620000
5.566207,1.268636,-1.773691,1.844595,1.152603,2.552492,-5.299579
5.586830,1.451896,0.093811,0.701404,-2.483635,0.680784,-13.459411
5.606902,2.001674,1.120283,0.547597,-0.641266,1.641187,-9.120234
5.627051,1.159553,1.383173,0.652317,-0.746049,-0.162263,-4.278104
5.647132,0.558505,1.572978,-0.097084,-2.589016,-1.287323,-7.793394
5.667289,-0.867210,1.967859,-1.177006,-0.198787,-0.737666,-1.339415
5.687266,-0.942478,0.343612,-1.636246,9.191486,4.739145,-17.065712
5.707335,1.527163,-1.159553,-1.508619,4.644542,0.694556,-3.481161
5.727421,-0.679588,-0.007636,-1.249001,5.352869,-0.090412,-10.056088
5.747478,1.099557,-1.073377,-0.875937,0.408950,-2.145339,-11.332035
5.767576,0.910844,-0.165806,-1.228275,1.997446,-3.359614,-10.678195
5.787246,-0.009817,0.076358,-0.906480,-0.959205,-2.450105,-4.607419
5.807342,-0.989384,-1.144281,0.355611,3.323090,-0.841849,-6.148015
5.827452,-2.199115,-1.906772,1.906772,2.753075,-0.997526,-9.209449
5.847518,-2.019128,-0.727584,2.938698,-4.764293,0.680186,-17.584233
5.867598,-0.765763,-0.233438,2.739076,-1.324446,2.993176,-9.985435
5.888186,0.015272,0.346884,1.432261,-8.381970,5.366041,-19.620000
5.908357,1.392991,0.844303,0.925025,1.560954,1.331032,-10.301578
5.928401,1.569705,0.971930,1.350449,0.237107,0.701142,-5.941445
5.948524,1.015563,1.202096,0.760309,-2.427352,-0.458047,-7.571854
5.968575,-0.148353,1.716968,-0.191986,-0.735271,-1.070574,-3.773952
5.988692,-0.160352,0.738492,-0.949023,4.923561,5.130731,-11.052416
6.008810,1.503165,-0.095993,-0.517054,6.618038,3.099155,-7.256310
6.028879,0.142899,-2.523092,-0.704677,4.972061,0.225731,-3.978127
6.048923,0.481056,0.901026,0.009817,6.361172,2.371069,-16.408878
6.069093,0.881391,-1.208641,0.246528,1.478326,-1.371747,-4.762496
6.089123,0.209440,-0.001091,-0.190895,-0.421523,-3.802094,-9.595047
6.109146,-0.152716,-0.354520,0.085085,2.748884,-4.127217,-13.642630
6.129308,-0.662134,-1.745329,1.425716,1.564547,-1.144819,-4.628974
6.149361,-1.811870,-1.655881,2.008219,-1.280737,-2.521357,-5.683980
6.169493,-1.880592,0.008727,2.183843,-4.057762,-0.319735,-14.580280
6.189636,-1.316633,-1.204277,1.591522,1.348995,4.219426,-10.353669
6.210404,0.112356,0.248709,1.411535,-0.348475,2.443519,-16.066989
6.229821,0.556324,0.808306,1.515164,2.589615,0.743055,-5.813910
6.249994,1.074468,2.262383,1.433352,2.072291,-1.517844,-1.340013
6.270001,0.077449,1.015563,0.347975,-1.958527,0.217348,-8.505313
6.290076,-0.472330,1.947133,-0.393790,0.918490,-0.362247,-1.604064
6.310188,-0.430878,0.691587,-1.295907,6.076763,4.457730,-13.026511
6.330250,0.930479,1.059197,-1.216276,6.752159,4.754114,-10.971584
6.350388,1.214095,0.439605,-0.892300,8.173004,4.397855,-9.962084
6.370490,1.925316,-0.647953,-0.304342,6.836583,1.019081,-2.565066
6.390572,1.262091,-2.825252,-0.422152,3.169808,0.413740,-0.747246
6.410661,1.313360,-3.978260,-0.344703,1.768722,-0.696951,-4.893624
6.430715,-1.121374,-0.117810,0.654498,2.551893,-4.110452,-19.620000
6.450848,0.217075,-1.300270,1.826051,-3.860771,-6.254594,-13.343253
6.470970,-1.256637,-0.383972,2.110758,1.611848,-0.628693,-1.641786
6.490996,-1.719149,-0.939205,2.241657,-3.186573,-1.514251,-5.613926
6.511154,-1.754056,-1.395173,1.714786,-1.973496,0.392184,-14.277909
6.531286,0.595594,-0.533416,0.579231,1.801055,1.577120,-14.374308
6.551312,1.613339,0.097084,0.401426,0.937650,1.068179,-7.922126
6.571407,1.484621,-0.227984,0.810487,-1.589694,0.589175,-6.836583
6.591458,0.931569,0.209440,0.506145,-1.033451,-0.737067,-5.354665
6.611602,-0.443968,0.415607,-0.394881,-3.165018,-0.751437,-5.358257
6.631669,-0.774490,1.290453,-1.403899,-1.866918,-1.683100,-5.519323
6.651738,-1.619884,1.704969,-3.496113,0.545466,0.006586,-9.747729
6.671804,1.443169,-0.423242,-3.805909,5.262457,6.023474,-16.816031
6.692007,1.819506,-1.142100,-3.004148,2.323169,-0.064666,0.687969
6.712053,-0.366519,0.137445,-1.605703,6.558761,1.106499,-7.222181
6.732168,1.170461,-1.105012,-0.832304,-2.114802,-1.419648,-12.661271
6.752291,0.886845,0.728675,-0.536689,-1.857338,-3.673960,-10.668016
6.772402,-0.519235,-0.410152,0.679588,4.250561,0.058079,-7.745493
6.792461,-0.883573,-1.350449,1.366811,0.652643,-0.814307,-4.827761
6.812532,-1.754056,-0.642499,1.599158,1.529819,-1.951941,-10.500364
6.832671,-1.649336,-0.387245,1.903500,0.803529,0.296384,-16.404686
6.852758,0.440696,0.147262,0.842121,-5.081034,0.950224,-19.620000
6.872777,0.702495,-0.226893,0.165806,-0.206570,1.531016,-11.428434
6.892957,1.084286,-0.052360,0.725402,-0.130529,0.977767,-7.720944
6.913014,0.404698,0.238892,0.690496,0.164059,-0.074246,-3.912863
6.933138,-0.362156,1.238093,0.251982,-1.697470,-0.294587,-5.801935
6.953261,-1.183551,1.755147,-1.234820,-4.294869,-0.762215,-7.841893
6.973345,-1.486802,0.735220,-2.465278,8.892109,8.625663,-15.204183
6.993420,2.264565,-0.173442,-2.270019,6.828799,4.212839,-7.879614
7.013507,2.164208,-1.734421,-2.170753,5.101990,0.095801,-0.969983
7.033613,0.905390,-0.659953,-1.083195,7.985594,0.107776,-8.311915
7.053681,1.786781,-0.320704,-0.902117,-0.936453,-2.764451,-8.270002
7.073825,1.730058,0.301069,-1.077741,0.073647,-3.180586,-8.729247
7.093991,-0.706858,0.595594,-0.323977,2.305805,-3.403922,-10.918295
7.114016,-0.769036,-1.134464,0.779944,2.451302,-1.733994,-5.142107
7.134110,-2.073669,-1.541344,1.683152,1.987267,-3.791316,-7.103029
7.154208,-2.883066,-1.281726,2.212205,-0.054487,-2.276466,-7.815547
7.174346,-1.677698,-0.050178,1.984221,-0.557441,4.178112,-18.679356
7.194366,1.153008,-0.075267,-0.199622,-2.172881,1.283132,-19.620000
7.214894,1.190096,0.117810,-0.085085,0.255070,1.392704,-9.922566
7.234795,1.328632,0.563960,0.395972,-0.870590,0.413740,-6.258785
7.254731,0.626137,0.847576,0.133081,-0.632884,-0.319136,-3.876938
7.274763,-0.726493,1.227185,-0.518145,-1.720223,0.156874,-5.811515
7.294823,-1.149736,2.217659,-1.733330,-1.547781,0.550854,-9.314231
7.314991,1.726785,-0.496328,-2.835069,8.702902,5.984555,-10.268646
7.335128,2.862340,-0.658862,-2.130393,1.844764,0.630489,0.132325
7.355165,-0.435241,0.419970,-2.218750,-9.675280,4.363726,-19.620000
7.375257,1.117011,-1.841322,-1.282817,-1.420845,-2.330354,-12.064312
7.395343,1.491166,0.800670,-1.538071,1.982477,-3.552413,-13.115726
7.415362,-0.260709,-0.043633,-1.111557,0.358654,-3.154241,-3.426674
7.435524,-0.777762,-1.495529,0.044724,6.666537,0.168849,-9.031619
7.455656,-2.023491,-1.467167,1.767146,0.085023,-0.737067,-4.367318
7.475735,-2.143482,-0.573777,2.399828,2.297422,-0.801733,-11.617641
7.495854,-0.761400,-0.733038,2.851432,1.197510,-0.659828,-14.484479
7.515987,0.193077,0.102538,0.866120,-2.856061,0.836461,-19.607426
7.536052,1.130101,0.093811,0.536689,0.240699,1.374142,-10.047706
7.556211,1.162826,1.048288,0.907571,-1.190923,0.515528,-6.722820
7.576305,1.000292,1.267545,0.595594,-0.842448,-0.172441,-5.457052
7.596369,-0.097084,0.855211,-0.141808,-2.583029,-0.152084,-6.128855
7.616393,-1.065742,1.269727,-1.250092,-4.595444,0.018561,-7.211404
7.636574,-1.499892,1.113738,-2.480549,4.683461,6.181545,-12.161310
7.656641,2.500184,0.221439,-2.469641,5.683980,4.700226,-9.407038
7.676714,1.604612,-2.663809,-2.321288,4.589456,-0.710722,-0.734672
7.696840,0.517054,0.224711,-1.817324,4.996011,-2.244133,-10.698552
7.716947,0.983929,-0.233438,-1.146463,-0.387394,-2.724335,-9.216634
7.737042,0.553051,0.208349,-0.493056,1.841171,-1.035247,-11.685300
7.757149,-0.928297,-0.298888,0.997019,2.227967,-0.856818,-5.542674
7.777187,-1.519527,-0.832304,1.484621,3.030897,-1.418450,-2.986589
7.797300,-2.354013,-1.963495,2.652900,1.897454,-1.385519,-10.633288
7.817426,-1.252274,-0.931569,3.246312,-3.524271,2.297422,-15.252083
7.837487,0.388336,-0.990474,1.003564,-11.707454,1.381926,-19.620000
7.857546,1.886046,-0.219257,-0.329431,-0.702339,1.599873,-13.124108
7.877691,1.855503,0.127627,0.339248,-0.279619,1.953138,-6.624025
7.897801,1.078832,1.009018,0.473421,-1.556164,0.125140,-7.577243
7.917906,0.326158,0.970839,-0.009817,0.159868,-0.468825,-2.690804
7.937953,-0.503964,0.847576,-0.783217,-1.217269,-0.855022,-5.080435
7.958071,-0.887936,1.368993,-1.974404,0.999921,-0.186213,-4.446354
7.978229,1.672244,0.247619,-2.576542,7.136559,4.274511,-11.985875
7.998229,-0.158170,-1.052652,-1.899136,2.722538,-0.202978,-4.701423
8.018391,0.047997,-0.278162,-0.847576,5.584587,0.031135,-10.652448
8.038514,1.051561,-0.863938,-0.530144,0.087418,-2.077081,-7.511979
8.058635,0.883573,-0.762491,-0.551960,2.131567,-1.883683,-11.229648
8.078731,-1.135555,-0.284707,0.646863,5.511539,-0.666414,-8.700507
8.098852,-1.282817,-1.829323,1.570796,1.071172,-0.857417,-5.575007
8.118903,-2.097668,-2.379102,2.747803,0.346080,-0.214354,-8.371791
8.138963,-1.023199,-0.004363,3.089233,-3.608097,0.231119,-14.200670
8.159104,1.091922,-0.032725,2.196933,-6.288723,4.445755,-17.207617
8.179126,0.503964,-0.856302,0.666498,0.249681,1.939367,-8.885522
8.199313,0.817032,1.038471,0.638136,-0.159868,1.601669,-13.877941
8.219747,1.358084,1.039562,0.885755,-1.620829,0.661624,-5.923482
8.239563,0.609774,1.158462,0.490874,-1.113684,-0.809517,-4.999603
8.259874,-0.975203,0.731947,-0.298888,-0.067659,-0.884960,-0.483195
8.279713,-0.657771,0.980657,-1.202096,4.728966,2.794389,-10.620714
8.299819,1.444260,-0.665407,-1.799871,6.103707,3.320695,-9.684261
8.319856,-0.811578,1.136646,-0.989384,4.993616,2.341132,-14.600039
8.339918,0.887936,-1.218458,-0.353429,1.110092,-2.107617,-5.058281
8.360021,0.747219,-0.854121,-0.791943,2.405797,-2.804568,-10.351873
8.380030,0.496328,-0.127627,-0.971930,0.929866,-2.805167,-9.087303
8.400214,-0.585776,-0.473421,-0.362156,1.147214,-1.922003,-6.604266
8.420305,-1.141009,-1.750783,1.318814,2.769840,0.417332,-6.071973
8.440410,-2.357285,-2.162027,2.732531,1.772314,0.535287,-8.475375
8.460513,-0.952295,0.090539,3.405574,-2.987787,1.865121,-14.585070
8.480596,1.178097,-0.134172,2.026764,-7.556287,3.690725,-18.957178
8.500682,0.058905,-1.050470,0.622864,-5.146897,1.444796,-15.283218
8.520717,1.318814,0.016362,0.595594,1.165177,1.660946,-12.108620
8.540876,1.952587,0.266163,0.716676,0.418530,0.546064,-4.064947
8.560974,1.046107,0.763582,0.201804,-1.422642,-0.737666,-6.916816
8.581073,0.101447,0.951204,-0.554142,0.168849,-1.383723,-1.479523
8.601185,-0.474511,1.510801,-1.384264,-0.622106,-1.047222,-4.075724
8.621238,-0.707949,1.159553,-2.862340,3.382965,4.096681,-19.620000
8.641375,0.661043,0.150535,-2.127120,5.419929,1.919608,-10.369836
8.661532,0.728675,-0.242164,-0.901026,5.894143,0.507744,-4.875661
8.681554,0.217075,-1.189006,-0.278162,1.469943,-1.719624,-7.058123
8.701630,0.346884,-0.313068,-0.242164,2.922523,-3.345842,-10.096205
8.721766,-0.507236,-1.058106,-0.169079,1.795067,-2.220183,-7.230564
8.741810,-1.595885,-1.850049,1.246820,5.643265,1.517844,-8.244256
8.761948,-2.311470,-2.150027,2.755439,1.693878,1.222059,-9.955497
8.781951,-0.853030,-0.879210,2.969241,-3.234474,2.165696,-13.491744
8.802133,1.758419,0.374155,1.959132,-4.405638,2.549498,-12.083472
8.822186,0.527962,-0.234529,0.836667,-7.768246,2.765050,-19.620000
8.842340,1.588250,0.293433,0.549779,-1.362167,1.237626,-10.818902
8.862439,1.559888,0.221439,0.481056,-1.809437,0.774190,-7.144942
8.882510,0.882482,0.851939,-0.352338,-2.997367,-0.740660,-7.161108
8.902566,-0.280344,0.645772,-1.105012,0.177830,-1.181942,-1.075364
8.922670,-0.573777,1.515164,-1.677698,-0.692161,-1.231040,-4.491859
8.942746,-0.364337,-0.259618,-3.060871,6.746171,4.597240,-19.620000
8.962876,0.578140,0.821396,-1.986403,8.573571,2.099833,-10.394385
8.983022,0.391608,-0.527962,-1.095194,3.527265,-0.158670,-1.602867
9.003183,0.448331,-1.663517,-0.316341,4.027225,-0.376617,-7.938891
9.023227,0.272708,-0.166897,0.149444,-0.838257,-3.384163,-13.391153
9.043314,-0.551960,-0.210530,1.033017,6.588100,-0.853226,-10.226733
9.063456,-0.534507,-2.033309,2.032218,-0.537682,-0.627495,-4.255351
9.083113,-2.282018,-1.160644,2.883066,-4.901407,-0.101190,-12.559482
9.103159,-1.343904,-0.630500,2.862340,-5.129533,1.907034,-15.982564
9.123184,1.005746,-0.721039,1.583886,-1.225052,4.096681,-10.762020
9.143276,0.297797,-0.753764,0.989384,-0.589774,1.014890,-11.970906
9.163390,1.173734,-0.055632,0.805033,-1.568738,0.857417,-14.027629
9.183442,1.699514,0.811578,0.764672,-0.841849,0.346080,-5.221741
9.203587,0.819214,0.854121,0.236710,-2.126179,-0.373024,-6.647377
9.224085,-0.347975,1.013382,-0.925025,-1.490900,-1.316063,-4.325405
9.243819,-1.189006,1.684243,-1.470440,1.285527,-2.093846,-0.998723
9.263940,0.185441,-0.635954,-2.659445,5.752837,6.284531,-19.620000
9.284095,1.550071,-0.982839,-2.270019,4.587660,1.101709,-2.938090
9.304077,-0.207258,0.213803,-1.711513,-0.197589,3.258424,-11.296708
9.324163,0.977384,-1.800962,-0.182169,2.113006,-0.111967,-7.417974
9.344263,0.917389,-0.309796,-0.250891,-1.093925,-4.137396,-8.914861
9.364376,-0.238892,0.385063,-0.051269,0.761616,-3.139871,-9.542955
9.384477,-0.022907,-1.457350,1.088649,2.075284,-0.371228,-6.683901
9.404511,-1.571887,-1.007928,2.328924,3.839216,-1.408271,-7.879614
9.424616,-1.802052,0.404698,2.237294,-3.916456,-1.862128,-15.574812
9.444708,-1.484621,-0.850848,1.267545,0.087418,2.213597,-8.904084
9.464766,0.116719,-0.728675,0.463603,-1.271157,2.335743,-17.097446
9.484897,1.125737,0.089448,0.567232,3.281776,1.062790,-6.868317
9.504915,1.110466,0.220348,0.905390,-0.750240,0.701741,-7.052135
9.525039,0.892300,0.748310,0.413425,-0.998124,-0.619113,-6.210884
9.545139,-0.022907,1.186824,-0.321795,0.094005,-1.315464,-2.145938
9.565303,-1.372265,2.147846,-1.177006,0.531096,-1.480122,-1.207090
9.585339,-0.195259,-0.523599,-2.457642,9.626781,7.577842,-19.620000
9.605469,2.244930,-1.220640,-1.776963,6.738387,0.772394,0.379611
9.625523,0.051269,0.124355,-1.622065,-4.997208,2.989583,-13.408517
9.645600,1.232639,-1.616611,-0.351248,1.271157,0.666414,-9.713002
9.665693,1.174825,0.038179,-0.597775,-2.041754,-3.802094,-10.349478
9.685754,1.396263,-0.320704,-0.747219,3.512296,-3.252437,-8.681946
9.705856,-0.477784,-0.789761,0.346884,6.028264,-0.334105,-5.100793
9.725955,-1.413717,-0.542143,1.314451,2.235751,-1.555565,-6.066584
9.746029,-1.966768,-0.860665,2.266746,0.156874,-3.126099,-10.161469
9.766161,-2.098758,-0.603229,1.931861,0.778980,0.598755,-9.455537
9.786226,0.212712,-0.213803,1.079922,-2.836901,2.116000,-19.620000
9.806344,1.221730,0.083994,0.364337,-1.465153,1.427432,-14.282699
9.826437,1.266455,-0.217075,0.739583,-1.609453,0.994532,-9.328601
9.846558,0.579231,0.774490,0.554142,-1.641187,-0.302371,-5.597759
9.866623,-0.164715,1.299179,-0.098175,-0.882565,-0.725092,-3.160827
9.886712,-1.420262,2.198024,-1.108284,-2.502197,-0.311951,-6.800059
9.906807,0.511600,-0.438514,-2.331105,7.554490,8.213719,-15.483203
9.926908,2.395464,-1.110466,-1.687515,3.128494,2.450704,-2.380051
9.947016,-0.220348,-0.123264,-1.637337,-4.589456,5.316345,-19.620000
9.967105,1.424625,-1.610066,-0.435241,5.731880,0.305365,-8.589139
9.987193,0.901026,0.087266,-0.913025,1.128054,-2.446512,-5.212161
10.007324,1.051561,-0.802851,-0.962113,2.608176,-2.572850,-5.813910
10.027340,0.011999,-0.152716,-0.451604,-0.255070,-3.991899,-9.993818
10.047429,-1.353721,-0.921752,1.158462,5.113367,-1.247206,-7.855065
10.067544,-1.881683,-1.073377,2.333287,1.589095,-1.276545,-7.385043
10.087670,-2.146755,-1.398445,2.637629,0.555046,-0.942440,-7.743098
10.107709,-1.647154,-0.004363,2.042035,-5.209167,4.500242,-19.620000
10.127805,0.733038,0.114537,0.214894,-3.015928,1.872905,-15.289805
10.147934,1.042834,-0.051269,0.621774,-0.427511,1.192121,-8.348439
10.168073,1.119192,0.919570,0.484329,-1.163381,0.002395,-8.135283
10.188124,0.734129,1.233730,-0.143990,-1.390908,-0.453856,-3.736829
10.208228,-0.621774,0.729766,-0.784307,-1.359174,-0.602946,-3.279979
10.228639,-1.187915,0.475602,-2.292926,7.298822,6.353388,-17.456699
10.248408,1.819506,-1.097376,-2.216568,5.727090,4.899611,-13.155244
10.268481,1.327541,-1.384264,-1.646064,-0.192799,1.092728,-7.183861
10.288540,0.259618,-0.368701,-0.403607,7.265292,1.093326,-9.427994
10.308778,1.415898,-0.967567,-0.093811,-1.518442,-1.030457,-7.465276
10.328817,0.929388,-0.063268,-0.759218,0.352667,-4.173322,-13.391153
10.348861,0.143990,-0.227984,-0.803942,0.291594,-4.281696,-9.119636
10.368960,-1.035198,-1.023199,0.451604,6.031857,-0.204774,-4.375102
10.389032,-1.982040,-1.232639,1.547889,0.180824,-0.980760,-5.794750
10.409137,-1.679879,-0.894481,2.704170,-3.595523,-0.048499,-19.620000
10.429203,-0.616319,0.130900,2.548181,-1.747766,0.607137,-13.092973
10.449239,0.474511,-0.026180,0.117810,-1.563349,0.795146,-14.467115
10.469340,0.946841,0.353429,0.233438,1.604663,1.208287,-7.656279
10.489491,1.190096,0.525780,0.485420,-0.878373,1.158591,-8.000563
10.509536,0.608684,0.966476,0.068722,-0.643063,-0.277224,-3.127896
10.529670,-0.423242,0.995929,-0.527962,-1.656156,0.096998,-4.828958
10.549756,-1.403899,1.800962,-1.779145,3.833828,0.694556,-3.561993
10.569910,1.165007,-0.683951,-2.296199,10.969189,7.628137,-14.656921
10.589912,2.585269,-1.539162,-1.443169,5.702542,-0.864003,2.772834
10.610037,-0.601048,0.575959,-1.143191,2.697990,2.553690,-14.268329
10.630079,1.300270,-1.403899,-1.000292,-1.202300,-2.154919,-9.428593
10.650208,1.325359,-0.139626,-1.336268,2.336342,-3.378774,-11.230845
10.670343,-0.253073,-0.170170,-1.007928,0.977168,-3.378175,-6.710246
10.690431,-0.620683,-1.436624,0.305433,3.656596,-0.620310,-6.167175
10.710582,-1.499892,-1.330814,1.406081,1.435814,-0.706531,-4.528383
10.730657,-1.766055,-1.130101,2.551453,3.672762,0.100591,-12.975617
10.750729,-0.627228,0.211621,3.348851,0.212558,0.241298,-9.574689
10.770790,0.058905,-0.194168,1.670062,-10.809921,1.923799,-19.620000
10.790892,0.812669,0.332703,0.151625,-4.232000,2.249522,-18.267413
10.810978,1.325359,0.413425,0.532325,-0.972977,0.728086,-6.419850
10.831128,0.910844,0.747219,0.198531,-1.984872,-0.116757,-5.730683
10.851148,0.351248,0.589049,-0.633773,-1.293311,-0.299976,-4.523593
10.871280,-0.555233,0.893390,-1.319905,-1.031056,-0.643063,-3.267405
10.891398,-0.477784,-0.289070,-2.823070,7.307205,7.935897,-18.561401
10.911456,2.181662,0.249800,-2.802344,8.186177,3.226690,-6.776708
10.931560,-1.035198,0.138536,-1.893682,-1.332828,2.979404,-12.861854
10.951701,1.071196,-1.300270,-1.278454,3.344645,-0.079036,-8.721464
10.971744,1.219549,0.554142,-1.119192,1.371747,-2.418371,-9.894424
10.991796,0.018544,-0.298888,-0.883573,2.284849,-3.666176,-7.359296
11.011891,-0.846485,-1.102830,0.128718,4.058361,-0.728685,-6.791078
11.032007,-1.643882,-1.436624,1.625338,0.986748,-1.099314,-6.510861
11.052117,-1.697333,-0.819214,2.775074,2.269880,-0.434097,-13.759387
11.072214,-1.184642,-1.289362,3.101232,2.529141,1.058000,-4.176315
11.092373,0.592321,0.378518,1.486802,-5.681585,0.897534,-19.620000
11.112403,1.136646,0.178896,0.271617,-2.362088,1.675316,-14.899417
11.132498,1.396263,0.767945,0.698132,0.662223,0.558040,-3.601511
11.152592,0.956659,0.921752,0.442877,-2.049538,-0.483195,-7.142547
11.172634,0.130900,0.743947,-0.397062,-0.998723,-0.088616,-4.758904
11.192712,-0.730857,0.892300,-0.784307,-0.686772,-0.897534,-2.307003
11.212791,-1.038471,0.366519,-2.132574,8.710686,7.619755,-16.851357
11.233242,2.299471,-0.962113,-2.023491,5.860014,4.220024,-11.106304
11.253053,0.307614,-0.577049,-1.612248,-5.679190,-0.987347,-8.065827
11.273159,0.893390,-1.213004,-0.472330,4.242777,-1.383723,-8.275990
11.293267,0.694859,0.074176,-0.745037,-2.345323,-2.974614,-8.696316
11.313291,0.079631,-0.572686,-0.963204,3.201542,-3.064427,-9.078920
11.333464,-1.026472,-0.522508,-0.221439,2.000440,-2.879412,-8.822653
11.353476,-1.467167,-1.481348,1.431170,2.514771,0.266446,-6.891669
11.373617,-2.094395,-1.217367,2.769619,1.022075,1.329236,-13.667778
11.393661,-0.937024,-0.235619,3.247403,-3.016527,1.156196,-11.797866
11.413716,-0.050178,-1.359175,1.802052,-10.345886,2.737507,-19.620000
11.433904,0.711222,-0.437423,0.427606,-3.581752,2.498604,-16.192128
11.453937,1.165007,0.815941,0.788671,-1.826202,1.692680,-10.380015
11.474097,1.034108,1.418080,0.872665,-1.603466,0.067061,-5.733078
11.494169,0.378518,1.579523,0.113446,-1.588497,-0.607137,-7.650291
11.514261,-0.387245,0.640318,-0.644681,0.609532,1.774111,-4.628375
11.534387,0.654498,-0.069813,-0.556324,4.836742,4.716392,-9.574091
11.554447,0.417788,-2.004947,-0.308705,6.646179,1.026266,-6.163583
11.574735,0.058905,1.052652,-0.035997,-4.446354,3.108735,-19.620000
11.594664,0.909753,-1.391900,-0.112356,1.959725,-0.626298,-5.997728
11.614757,1.005746,-0.122173,-0.293433,0.012574,-3.758983,-7.546108
11.634871,0.597775,-0.556324,-0.329431,1.850751,-3.894302,-8.770562
11.654996,-1.192278,-1.296998,0.819214,5.819897,-0.593366,-6.286926
11.675062,-1.805325,-2.083487,1.853321,0.457449,-1.444197,-4.337979
11.695148,-1.361357,-0.417788,2.530727,-1.687890,1.873504,-15.073055
11.715228,-0.462512,0.028362,2.842705,-4.867877,2.778821,-15.107184
11.735266,0.330522,-0.028362,1.192278,-3.071014,0.767604,-13.675562
11.755370,0.589049,0.354520,1.087558,-0.371228,1.869313,-11.815829
11.775470,1.065742,0.990474,1.186824,-2.617756,1.677112,-13.801899
11.795557,0.962113,1.085377,0.735220,-2.382446,0.179028,-7.354506
11.815674,0.302160,1.468258,-0.030543,-2.574646,-0.933459,-7.076085
11.835781,-0.905390,1.541344,-1.105012,3.751798,3.159630,-5.771398
11.855884,0.399244,-0.134172,-1.384264,6.779702,5.627098,-10.953023
11.875983,1.314451,-1.019927,-0.687223,8.972342,2.475253,-5.149891
11.896218,0.503964,-1.139918,-0.470148,-0.379611,0.505948,-9.494456
11.916182,0.269435,-0.475602,0.023998,7.148535,-0.264650,-11.142828
11.936237,1.316633,0.239983,0.160352,-0.046703,-2.468666,-5.729485
11.956326,0.362156,-0.481056,-0.030543,1.486708,-3.323090,-7.748487
11.976444,-1.169371,-0.697041,0.405789,0.998723,-3.678151,-9.118438
11.996533,-1.757328,-1.776963,1.464986,-0.138312,-2.179468,-8.818462
12.016631,-2.291835,-1.173734,1.953678,-1.124462,-1.929188,-8.823851
12.036787,-1.599158,-0.766854,1.987494,2.475851,2.363286,-7.707173
