timestamp,gx,gy,gz,ax,ay,az
0.000000,0.044724,-0.187623,-0.021817,2.117197,2.948868,-9.336984
0.020153,0.052360,-0.150535,-0.015272,2.283052,2.899171,-9.277707
0.039714,0.015272,-0.217075,-0.010908,2.519561,3.402125,-9.495654
0.059685,0.375246,-0.053451,0.273799,3.770359,7.019802,-12.547507
0.080990,0.931569,-1.589340,1.143191,4.817582,6.224057,-12.464879
0.100383,2.652900,-1.926407,1.300270,2.407593,6.141429,-13.243859
0.121227,3.490659,-3.202679,0.955568,0.573008,1.115480,-2.703977
0.140743,3.029237,-2.475095,0.730857,-0.006586,1.764531,-3.175197
0.160327,1.407172,-0.062177,0.649044,-3.269800,-0.102986,-11.137440
0.180365,0.544325,-0.110174,0.030543,0.358654,-2.463278,-11.541000
0.200505,0.077449,-0.270526,-0.016362,-0.001796,-3.738027,-8.707094
0.220569,-0.009817,-0.229074,0.049087,-0.479004,-1.605262,-10.674602
0.240655,-0.175624,-0.189805,0.188714,0.138312,1.117277,-9.169332
0.260761,0.014181,-0.202895,0.081812,0.017963,2.923720,-9.447155
0.280867,0.209440,-0.150535,-0.119991,0.724493,1.328637,-9.940529
0.300919,0.078540,-0.198531,-0.139626,1.863924,-0.370031,-9.895023
0.321070,-0.053451,-0.181078,0.023998,1.429827,0.547861,-10.336306
0.341192,0.013090,-0.196350,0.043633,0.351469,1.485511,-9.176517
0.361270,0.121082,-0.164715,-0.050178,0.123344,0.695753,-9.659114
0.381340,0.032725,-0.188714,0.004363,0.016765,0.125739,-9.992021
0.401525,0.006545,-0.141808,-0.098175,0.653242,1.071771,-9.533375
0.421601,0.069813,-0.163625,-0.045815,1.499881,1.234633,-9.684261
0.441586,0.026180,-0.152716,-0.004363,1.006507,0.443079,-9.721384
0.461709,0.013090,-0.123264,-0.052360,0.785566,0.720901,-9.958491
0.481828,0.028362,-0.159261,0.014181,0.365240,0.994532,-9.774075
0.502024,0.042542,-0.164715,-0.018544,0.022154,1.033451,-10.174642
0.522042,0.075267,-0.184350,-0.010908,0.150886,0.456251,-9.837543
0.542198,0.051269,-0.170170,-0.032725,0.788560,0.594564,-9.844129
0.562249,0.032725,-0.210530,-0.045815,0.996927,1.122665,-10.001602
0.585320,0.053451,-0.212712,0.004363,0.534688,0.774789,-9.898616
0.602428,0.054542,-0.145080,-0.009817,0.726290,0.707728,-9.464518
0.622548,0.037088,-0.188714,-0.013090,0.861010,0.683778,-9.256152
0.642637,0.025089,-0.145080,-0.067632,0.498164,0.956810,-9.854907
0.662684,0.053451,-0.158170,-0.031634,0.959205,0.835862,-10.040521
0.682865,0.003272,-0.119991,-0.032725,1.183140,0.777783,-9.792037
0.702900,0.082903,-0.165806,-0.021817,1.179547,0.551453,-8.951984
0.723002,0.031634,-0.190895,0.025089,0.676593,1.084345,-10.396780
0.743353,0.028362,-0.139626,-0.020726,0.220342,0.759221,-9.955497
0.763249,0.082903,-0.134172,-0.051269,0.672402,0.716710,-9.478290
0.783271,0.031634,-0.166897,0.016362,0.841849,0.711920,-10.026151
0.803462,0.019635,-0.138536,-0.044724,0.854423,0.884361,-9.526789
0.823613,0.075267,-0.126536,0.015272,0.696352,0.959804,-9.824370
0.843639,0.042542,-0.117810,0.029452,0.596360,0.537083,-10.033336
0.863709,0.063268,-0.140717,-0.037088,0.737067,0.803529,-9.308842
0.884756,0.044724,-0.170170,-0.001091,0.628693,0.839454,-9.956096
0.903558,0.022907,-0.154898,-0.022907,0.562231,0.653242,-9.834549
0.923238,0.042542,-0.145080,-0.010908,0.929268,0.832269,-9.599837
0.943461,0.038179,-0.150535,-0.014181,0.680186,0.823887,-9.681866
0.963465,0.052360,-0.124355,-0.039270,0.728086,0.776585,-9.989028
0.983648,0.037088,-0.173442,-0.014181,0.704136,0.901126,-10.216555
1.003646,0.035997,-0.170170,-0.014181,0.675994,0.696352,-9.565109
1.023784,0.058905,-0.141808,-0.022907,0.653840,0.687371,-9.581874
1.043876,0.067632,-0.101447,-0.053451,0.637075,0.869991,-9.936936
1.064816,0.062177,-0.177805,0.005454,1.108894,0.702938,-9.497450
1.084820,0.050178,-0.115628,-0.017453,0.935255,0.950823,-9.631571
1.104952,0.056723,-0.141808,-0.098175,0.943039,0.980760,-10.280023
1.125041,0.051269,-0.184350,0.011999,0.895737,0.444875,-9.475895
1.145154,0.030543,-0.185441,0.028362,0.495769,0.598755,-9.953102
1.165716,0.044724,-0.147262,-0.023998,0.473615,1.092728,-9.820778
1.185477,0.013090,-0.143990,-0.075267,0.243693,0.619711,-10.217752
1.205030,0.074176,-0.166897,-0.061087,0.915496,0.814905,-9.604627
1.224746,0.064359,-0.139626,-0.029452,1.409469,0.837059,-9.451945
1.244778,0.002182,-0.080721,-0.004363,0.958008,0.993933,-9.768087
1.264959,0.068722,-0.207258,-0.001091,0.969384,0.726888,-9.811796
1.284953,0.122173,-0.248709,0.019635,0.400567,0.735870,-9.565708
1.305174,0.002182,-0.089448,0.015272,0.381407,0.727487,-9.699230
1.325183,0.034907,-0.184350,-0.065450,0.411943,0.648452,-9.936936
1.345279,0.032725,-0.117810,-0.083994,0.880170,0.804727,-9.552535
1.365351,-0.017453,-0.127627,-0.032725,1.007704,0.840053,-10.050699
1.385451,0.014181,-0.167988,0.039270,1.131048,0.814905,-9.506431
1.406056,0.040361,-0.148353,0.013090,0.706531,0.724493,-9.501641
1.425632,0.023998,-0.123264,-0.057814,0.811313,0.956810,-9.941127
1.445667,0.083994,-0.181078,-0.029452,1.123264,1.034050,-9.684860
1.465860,0.099266,-0.217075,0.027271,1.069376,0.805924,-9.346564
1.485934,0.075267,-0.189805,-0.022907,0.767604,0.394579,-9.487870
1.506024,0.031634,-0.162534,-0.037088,0.983156,0.728086,-9.297466
1.526119,0.029452,-0.166897,0.031634,0.822689,0.828078,-9.504635
1.546217,0.040361,-0.155989,-0.047997,0.478405,0.699944,-9.632170
1.566223,0.014181,-0.119991,-0.058905,0.858615,0.849034,-9.883647
1.586430,0.029452,-0.135263,-0.017453,0.980162,0.746049,-9.658515
1.606421,0.017453,-0.145080,0.009817,0.963397,0.929866,-9.495654
1.627392,0.064359,-0.172351,-0.008727,0.946631,0.795146,-9.547745
1.647468,0.033816,-0.190895,-0.033816,1.024470,0.781974,-9.735156
1.667610,0.058905,-0.182169,-0.006545,0.738864,0.767005,-9.899813
1.687654,0.063268,-0.123264,0.028362,0.830473,0.555046,-9.581874
1.707767,0.039270,-0.149444,0.045815,0.772993,0.819097,-9.990824
1.727515,0.038179,-0.170170,0.033816,0.650847,0.991538,-9.717193
1.749960,0.052360,-0.145080,-0.004363,0.683179,0.871787,-9.872271
1.769948,0.069813,-0.169079,-0.006545,0.723895,0.746049,-9.861493
1.788941,0.082903,-0.151625,0.051269,0.677791,0.585582,-10.130933
1.809549,0.004363,-0.124355,0.088357,1.169967,0.741259,-9.486074
1.828289,0.089448,-0.262890,0.043633,0.844244,0.465831,-9.802815
1.850892,0.091630,-0.268344,-0.022907,0.600551,0.058079,-9.807605
1.869894,-0.035997,-0.130900,0.023998,0.624501,0.719105,-9.187894
1.888000,-0.063268,-0.045815,-0.009817,0.268841,1.272354,-10.345886
1.907948,-0.022907,-0.136354,-0.017453,0.553250,1.202300,-9.573492
1.928100,-0.021817,-0.126536,0.014181,0.445474,1.128054,-9.981244
1.948199,0.125446,-0.113446,0.102538,1.002914,0.918490,-8.846603
1.968844,0.249800,-0.134172,0.269435,1.074765,0.790356,-9.714798
1.988902,-0.031634,-0.174533,0.211621,1.163381,-0.598156,-9.892628
2.008439,-0.097084,-0.159261,0.078540,1.193917,0.220941,-9.247170
2.028614,-0.251982,0.344703,0.022907,0.292192,0.488584,-8.225695
2.048638,-0.678497,0.233438,-0.191986,1.360371,0.429906,-9.190289
2.068768,-0.281434,-0.046906,-0.111265,1.933978,2.120790,-11.258388
2.088919,0.123264,-0.169079,-0.042542,1.023272,1.273552,-10.606344
2.108982,0.469057,-0.365428,-0.391608,0.952020,-0.333506,-8.899893
2.129000,0.093811,-0.068722,-0.337067,1.760938,1.284329,-9.222023
2.149097,-0.206167,-0.121082,0.050178,1.723217,1.592688,-9.354348
2.169174,-0.106901,-0.511600,0.243255,1.354384,1.245410,-7.215595
2.189251,-0.707949,0.238892,0.067632,-1.438808,3.416495,-10.922487
2.209390,-0.210530,-0.041452,0.109083,1.962719,2.076482,-11.851155
2.229469,0.431969,-0.523599,0.066541,0.196990,1.096919,-10.202184
2.249601,0.433060,-0.111265,-0.448331,1.387315,-1.802252,-9.408834
2.269666,0.498510,-0.571595,-0.961022,1.863924,-0.880170,-9.012458
2.289740,0.105811,-0.201804,-0.945750,0.755030,2.179468,-10.144105
2.309834,-0.175624,-0.104720,0.008727,1.628015,3.045866,-8.808283
2.329942,-0.093811,-0.391608,0.430878,0.655637,3.576363,-8.837023
2.350031,-0.107992,-0.081812,0.474511,-0.132325,3.321892,-10.443483
2.370131,0.187623,-0.550870,0.520326,1.602867,0.584984,-10.485396
2.390206,0.783217,-0.485420,0.213803,-0.169448,-1.767524,-12.508588
2.410291,0.332703,-0.237801,-0.265072,2.537523,-1.641187,-6.142028
2.431961,-0.114537,0.066541,-0.323977,-0.490979,-1.228645,-10.000404
2.452822,-0.307614,0.051269,-0.634864,-0.832868,0.640069,-9.166937
2.470867,-0.149444,0.083994,-0.478875,3.180586,3.158432,-8.213121
2.491328,0.019635,-0.326158,-0.202895,0.210762,4.512816,-11.906840
2.510741,0.181078,-0.558505,0.171260,1.146017,2.312391,-7.871830
2.530904,-0.064359,-0.003272,0.500691,2.067501,2.881807,-12.043954
2.550934,0.913025,-0.656680,0.239983,1.008303,-1.213077,-10.141710
2.571084,-0.081812,-0.085085,-0.128718,-0.110171,-1.131048,-7.645501
2.591130,-0.106901,-0.234529,-0.148353,0.605940,-1.553769,-9.734557
2.611380,-0.186532,0.200713,-0.218166,0.317340,-1.145418,-7.780221
2.631371,-0.814851,0.209440,-0.535598,-0.722098,2.165098,-8.547226
2.651502,-0.122173,-0.109083,0.006545,3.464396,5.752837,-11.459570
2.671596,0.257436,-0.457058,0.431969,2.127975,4.111051,-9.176517
2.691633,0.116719,-0.282525,0.695950,1.308279,3.366200,-10.875185
2.711743,0.369792,-0.151625,0.493056,0.422122,-0.550256,-10.876382
2.731836,0.871574,-0.578140,-0.593412,-0.256267,-1.708248,-9.842333
2.752117,-0.237801,0.298888,-0.577049,0.194595,-1.317859,-8.471184
2.772545,0.247619,-0.296706,-0.503964,0.759820,-1.333427,-6.885681
2.792171,-0.281434,0.452695,-0.764672,0.911305,0.244891,-8.619077
2.812931,-0.165806,0.331613,-0.330522,2.155518,5.254074,-12.100836
2.832407,-0.160352,-0.039270,0.747219,0.386796,3.696713,-8.234676
2.852349,-0.009817,0.110174,0.851939,2.182462,1.571732,-10.671010
2.872548,0.220348,-0.041452,0.030543,0.328118,-0.831072,-8.482560
2.892662,0.247619,-0.287979,-0.424333,1.529819,-1.120869,-9.241782
2.913465,0.223620,-0.388336,-0.704677,1.442999,-1.175356,-11.120076
2.933163,0.150535,-0.656680,-1.031926,1.505869,-0.562231,-6.897656
2.952898,-0.529053,0.256345,-0.873755,-0.708327,1.959126,-9.610615
2.972964,-0.412334,-0.205076,0.369792,3.305726,4.140390,-10.551857
2.993172,-0.028362,-0.536689,0.815941,-0.341290,4.655918,-9.125623
3.013638,-0.087266,-0.410152,0.735220,1.314267,3.263813,-9.653725
3.034885,0.323977,0.117810,0.865029,1.855541,1.863325,-11.590697
3.054318,0.566141,-0.429787,0.427606,3.002756,-1.904639,-9.462722
3.073759,0.627228,-0.248709,0.010908,1.725013,-1.879492,-9.324410
3.093510,0.351248,-0.270526,-0.763582,-0.633483,-0.937051,-8.729846
3.113567,0.427606,-0.533416,-1.563161,-0.875978,0.555645,-8.751401
3.133710,-0.754855,0.897754,-0.722130,0.001796,3.215314,-9.198671
3.153779,-0.607593,0.595594,0.223620,1.739383,3.393144,-10.318942
3.173842,-0.074176,-0.411243,0.986111,0.458646,3.606899,-9.920770
3.195826,-0.235619,-0.071995,1.112647,0.620909,1.661545,-9.336385
3.214595,0.155989,-0.330522,0.533416,0.671204,-1.626817,-9.781260
3.234202,0.184350,-0.225802,-0.270526,0.896935,-2.219584,-9.644145
3.254216,-0.118901,0.210530,-0.642499,1.588497,-1.237626,-8.980126
3.274383,-0.341430,0.154898,-0.937024,1.490301,1.306483,-10.711725
3.294440,-0.254164,0.028362,-0.356702,2.569856,3.365601,-9.253757
3.314538,-0.133081,-0.073086,0.412334,1.268762,4.213438,-8.896899
3.334561,0.221439,-0.337067,0.337067,-0.153281,2.257306,-9.876462
3.354700,0.395972,0.351248,0.066541,1.246009,2.324965,-10.559641
3.374862,0.533416,-0.124355,0.117810,2.616559,-0.146096,-7.555089
3.394900,0.221439,-0.109083,-0.167988,2.081871,-0.340692,-11.479329
3.414996,0.292343,-0.158170,-0.525780,2.762655,-1.399290,-9.462123
3.435129,0.292343,-0.301069,-0.661043,1.766926,-0.958008,-8.125104
3.455184,-0.105811,0.268344,-0.664316,0.208965,3.097958,-9.002280
3.475249,-0.334885,0.457058,-0.017453,1.780697,2.977608,-8.950188
3.495945,-0.109083,-0.238892,0.593412,1.475332,3.152444,-9.656719
3.515488,-0.350157,-0.069813,0.991565,1.522634,2.632126,-8.679551
3.535562,-0.190895,-0.277071,1.022108,1.773512,1.216670,-11.529025
3.555751,0.187623,-0.357792,0.183260,0.852028,-1.856739,-9.251362
3.577039,0.193077,0.122173,-0.539961,0.956212,-0.460443,-9.692644
3.595986,0.033816,-0.014181,-0.527962,3.370990,0.628094,-10.398576
3.616034,0.419970,-0.179987,-0.626137,1.486110,-0.610131,-9.652527
3.636915,0.354520,-0.316341,-1.123556,0.198787,0.336500,-9.396260
3.656897,-0.175624,0.479966,-0.695950,2.150728,3.429069,-7.744296
3.677067,-0.140717,0.030543,0.317432,2.348317,4.599036,-12.073293
3.697129,-0.124355,-0.142899,0.807215,-0.170046,3.739823,-9.452543
3.717160,0.019635,0.104720,0.977384,1.108295,2.284250,-12.018807
3.737330,0.175624,0.581413,0.331613,-0.614323,0.515528,-9.866882
3.757614,0.352338,0.086176,-0.236710,3.369792,-0.977168,-7.098838
3.778244,0.497419,-0.398153,-0.249800,3.027903,-1.039438,-8.765771
3.796905,0.350157,-0.412334,-0.301069,1.920806,-1.904639,-11.602073
3.817021,0.151625,0.142899,-1.053743,0.822090,-0.997526,-9.226214
3.837058,-0.088357,-0.460331,-1.423534,1.860331,-0.565823,-5.081633
3.858591,-0.562869,-0.412334,-1.671153,-0.536484,1.325045,-10.170450
3.877910,-0.388336,0.759218,-0.549779,5.666017,5.018165,-11.105706
3.898084,-0.397062,-0.359974,0.794125,2.882406,4.242777,-8.995095
3.918202,-0.825759,0.367610,1.520618,-0.300575,4.640350,-11.039244
3.938236,-0.259618,0.305433,1.400627,1.397494,0.644859,-11.679313
3.958423,0.007636,-0.196350,0.608684,0.605341,-1.380130,-5.686974
3.978478,-0.243255,0.397062,-0.136354,2.696792,-1.507665,-10.784773
3.998613,0.053451,0.244346,-0.666498,3.406915,-0.395777,-10.837463
4.018746,0.046906,-0.222529,-1.014473,2.756069,0.432301,-7.050339
4.038868,0.185441,-0.237801,-1.332995,2.815944,2.783611,-8.141869
4.058953,-0.162534,0.712313,-0.743947,5.382208,4.603826,-9.513616
4.079037,0.293433,-0.397062,0.550870,1.522035,4.455934,-7.823930
4.099076,-0.115628,-0.171260,0.785398,1.857936,3.730243,-8.732840
4.119276,0.171260,0.244346,0.947932,1.229843,3.210524,-10.685380
4.139019,0.026180,0.213803,0.821396,2.053130,0.713117,-8.020322
4.158707,0.643590,-0.857393,0.373064,0.748444,2.981201,-11.909833
4.178800,1.483530,-0.047997,-0.305433,-0.210762,-0.414338,-7.494615
4.198789,1.189006,0.278162,-1.091922,4.381688,-0.008383,-11.658955
4.219882,1.688606,-0.635954,-1.326450,2.477049,-1.392105,-10.466834
4.239930,2.068215,-1.225003,-1.661335,2.786006,-0.904120,-9.746532
4.260175,2.284200,-1.023199,-2.231840,2.093846,0.694556,-6.499484
4.280057,1.887137,-1.511891,-2.032218,2.148931,0.877775,-7.046147
4.300168,0.075267,0.016362,-0.945750,1.575324,1.897454,-10.166259
4.320767,-0.313068,-0.986111,0.134172,3.378774,0.111368,-10.413545
4.339738,0.041452,-1.005746,-0.171260,-2.005829,-0.476010,-13.193564
4.359680,-0.256345,-0.795216,0.007636,-0.816103,-2.539918,-8.029303
4.382337,-1.392991,-0.955568,0.619592,2.301614,-1.914219,-7.167695
4.400597,-0.893390,-0.362156,0.508327,0.871188,-1.981280,-10.723700
4.420757,-0.714494,-0.577049,0.271617,-0.208367,-1.201701,-10.078841
4.440771,-0.667588,-0.657771,-0.053451,2.209406,-0.133522,-9.781260
4.460881,-0.603229,0.413425,0.759218,4.052373,2.851870,-10.254875
4.481037,-0.889027,0.587958,1.987494,2.180665,1.624422,-7.976613
4.501194,-1.383173,0.551960,2.854704,1.072370,1.626817,-9.089698
4.521250,-1.612248,0.354520,2.936516,0.478405,0.382006,-8.283175
4.541268,-1.857685,0.718857,2.308198,-1.186732,0.424517,-5.936056
4.561419,-2.196933,1.189006,1.376628,-3.316503,1.607657,-8.908874
4.581803,-1.941679,1.177006,0.051269,-3.254832,5.913303,-18.801502
4.601795,-0.338158,0.539961,-1.033017,4.425996,7.455097,-10.141710
4.621671,1.258819,0.141808,-0.645772,5.874983,9.241782,-12.988191
4.641739,2.855795,1.179188,0.502873,2.535727,4.974456,-6.589896
4.662239,2.466368,0.265072,0.538870,2.364483,3.007546,-6.063591
4.682024,2.287472,-0.953386,0.655589,3.721262,-0.660427,-4.553531
4.702148,1.770418,-1.050470,-0.255254,2.339335,-2.257905,-14.623989
4.722177,1.552252,-0.467966,-0.844303,5.038522,-3.566783,-11.875106
4.742314,1.575160,-0.605411,-0.977384,2.918930,-2.278861,-6.871910
4.762655,0.956659,-0.095993,-1.755147,-0.480800,-0.175435,-6.079757
4.783851,0.728675,-0.211621,-2.493639,0.714315,-0.077838,-9.599238
4.802889,1.193369,-0.668679,-2.342014,4.664301,-0.011376,-10.087822
4.822733,0.706858,-1.163916,-1.410444,3.708688,1.140029,-9.339379
4.842942,-0.237801,-0.775581,-0.265072,4.544550,-0.105381,-8.860375
4.862987,-0.052360,-1.544616,-0.018544,0.553848,-1.080753,-11.141032
4.883042,-0.902117,-0.899935,-0.788671,1.898053,-0.734672,-7.678433
4.903124,-1.071196,-1.027563,-0.574868,2.110611,-0.907114,-8.098160
4.923206,-1.062469,-0.460331,-0.196350,0.474214,-1.200504,-8.993897
4.943260,-0.835576,-0.479966,-0.185441,0.884960,-1.062790,-9.329799
4.963389,-0.695950,-0.071995,-0.405789,2.136357,-0.532892,-11.185340
4.983533,-0.737402,-0.019635,0.112356,1.742377,2.225572,-15.304774
5.003621,-0.861756,-0.793034,1.450805,5.950426,1.323847,-8.278984
5.023614,-1.006837,-0.088357,2.723804,2.924319,1.148412,-6.924001
5.043835,-1.587159,0.001091,3.099050,0.514330,1.750759,-7.009623
5.063919,-1.941679,0.129809,3.185226,-0.477806,0.553250,-5.777985
5.084064,-2.265656,0.310887,2.707442,-0.364642,-0.170046,-5.867798
5.104053,-2.744530,1.049379,1.843504,-0.950224,6.001919,-9.580078
5.124383,-1.732239,-0.938114,0.730857,2.805167,9.503438,-13.786930
5.144521,0.577049,-0.499600,1.339540,5.042714,8.819061,-14.667100
5.164331,-0.759218,0.203985,0.810487,-1.898652,2.721940,-15.453265
5.184490,0.082903,0.423242,0.175624,3.065026,0.441282,-8.541837
5.205138,0.464694,1.123556,0.291252,3.138074,4.360732,-10.061477
5.224744,1.404990,1.161735,0.007636,2.071692,7.027586,-14.138998
5.245278,2.626721,0.262890,-0.259618,2.403402,2.203418,-7.088060
5.266187,1.625338,-0.401426,-0.563960,2.534529,-0.381407,-2.063309
5.284974,1.478076,0.100356,-0.593412,2.720143,0.661025,-7.412585
5.305091,1.431170,-0.217075,-1.171552,3.429668,0.696352,-12.795991
5.325133,1.518436,-0.699223,-1.165007,3.981121,-0.501757,-10.085427
5.345753,1.101739,-0.581413,-0.674133,4.291276,0.084424,-8.726852
5.365320,0.945750,-0.363247,-0.488692,1.984872,0.120350,-10.730286
5.385462,0.764672,-0.435241,-0.649044,1.827999,0.884960,-8.820857
5.405545,0.838849,-0.512690,-0.535598,1.010099,0.419128,-11.636801
5.426108,1.129010,-1.206459,-0.880300,1.442401,0.461640,-10.176438
5.445721,1.237002,-1.401718,-1.013382,2.461481,-0.149689,-7.768246
5.465795,0.961022,-2.202387,-1.179188,0.303569,0.026345,-9.939331
5.485928,0.206167,-0.769036,-1.340631,0.627495,-0.418530,-9.438173
5.506060,-0.397062,-0.782126,-0.797397,0.056283,-1.472338,-7.373068
5.526090,-0.785398,-0.913025,-0.187623,2.769241,-1.220861,-7.471263
5.546220,-0.819214,-0.544325,0.362156,2.625540,-1.619033,-12.356505
5.566242,-1.073377,-0.826850,0.983929,4.234993,-0.490979,-9.086704
5.586499,-1.300270,-0.644681,1.778054,2.475851,0.818498,-10.375225
5.606524,-0.976294,-0.494146,2.370375,2.713557,-0.170046,-8.786728
5.626657,-0.962113,-0.002182,2.563452,-2.151925,1.508862,-10.762619
5.646728,-1.193369,0.105811,2.320197,-0.513732,1.371747,-4.448150
5.666818,-1.802052,-0.230165,1.946042,-2.093247,0.695154,-4.960085
5.686920,-2.535091,1.087558,1.590431,-0.759221,1.101709,-4.675677
5.707912,-3.875722,3.336851,1.344994,-5.051096,8.625663,-18.722466
5.726636,0.187623,-0.578140,0.536689,1.349594,10.277628,-19.620000
5.746413,2.274382,-0.571595,1.246820,1.117875,5.815107,-6.873706
5.766598,0.904299,-0.367610,0.658862,0.488584,6.760541,-12.432546
5.786658,2.301653,1.179188,0.299978,1.295107,1.460962,-7.179071
5.806693,2.043126,0.138536,-0.340339,2.460284,-0.283211,-4.245771
5.826822,2.375829,-0.848666,-0.562869,5.181625,-0.783770,-12.576248
5.846829,2.241657,-1.463895,-0.833395,1.238225,-0.754431,-10.345886
5.867118,1.658063,-0.721039,-1.516255,0.307161,-0.467628,-5.182224
5.887009,0.926115,-0.962113,-2.152209,-1.280138,-0.538281,-8.100555
5.907124,0.929388,-0.617410,-2.285290,5.710924,-0.186812,-8.293953
5.927220,0.628319,-0.905390,-0.749401,5.633086,2.048340,-11.761941
5.947357,0.282525,-0.690496,0.679588,3.693719,0.489183,-9.601633
5.967345,0.281434,-1.211913,0.805033,1.576522,-0.602347,-7.184460
5.987545,0.595594,-2.024582,0.256345,-1.124462,-1.217269,-9.176517
6.007710,-0.533416,-0.998110,1.051561,3.952381,-1.828597,-7.014413
6.028564,-0.846485,-0.179987,1.306815,-0.868793,-1.776506,-9.138796
6.048673,-1.548980,-0.229074,0.673043,0.364642,-2.532733,-8.086783
6.069829,-1.331904,-0.645772,0.209440,1.706451,-2.474055,-9.102870
6.088931,-1.659154,0.343612,0.692678,0.887355,2.454895,-11.355386
6.108673,-1.740966,0.904299,1.515164,-0.088017,2.048939,-5.478607
6.128268,-2.247111,0.923934,1.887137,2.298021,1.736389,-7.064709
6.148305,-2.687807,1.625338,2.503457,0.178429,2.565665,-9.787846
6.168495,-2.946334,1.656972,2.158754,-1.373544,0.213755,-7.788005
6.188585,-2.926699,2.395464,1.050470,-3.779341,2.749482,-15.223343
6.208698,-1.600249,1.444260,-0.278162,5.284012,5.551655,-3.994294
6.228788,0.090539,-0.798488,-0.391608,8.372390,14.162349,-17.732725
6.248843,1.578432,0.614138,1.300270,4.365522,8.128098,-9.410630
6.269451,1.742057,-1.532617,0.766854,3.311713,3.123105,-4.106860
6.289052,2.228567,-1.070105,0.020726,1.274749,3.650609,-9.548344
6.309107,2.817616,-0.567232,-0.897754,6.813831,0.634680,-1.765129
6.329186,2.565634,-1.242456,-1.292634,7.763456,-0.778980,-12.187057
6.349349,2.519819,-1.699514,-0.955568,2.553091,-0.934058,-8.352032
6.370692,1.920953,-1.258819,-0.933751,3.746409,0.262853,-6.304290
6.389550,0.799579,-0.165806,0.448331,3.387755,3.991899,-8.913065
6.409610,0.464694,-0.841031,1.770418,1.321452,4.263734,-9.090895
6.429656,0.399244,-1.202096,2.258020,-1.206491,3.719465,-8.114925
6.449693,0.224711,-1.340631,1.707150,0.000599,1.990261,-7.498806
6.469852,0.550870,-1.073377,1.289362,0.929866,0.985551,-12.714560
6.489870,0.878119,1.087558,0.184350,-2.161505,-7.555688,-14.541960
6.510021,0.851939,-0.001091,0.069813,-0.702339,-3.298541,-6.258186
6.530046,1.163916,0.562869,0.035997,-1.722618,-2.327959,-12.965438
6.550215,1.834777,0.479966,-1.123556,-3.339855,-0.395178,-11.379337
6.570356,1.076650,0.513781,-1.507528,-0.210762,-0.841251,-4.439767
6.590466,1.268636,-0.538870,-2.104213,0.446072,-0.359253,-7.731722
6.610452,1.185733,-0.404698,-2.649628,0.913700,-1.107697,-3.537444
6.630565,-0.068722,-0.369792,-1.942770,2.368076,-1.219065,-7.570058
6.650620,-0.917389,-0.201804,-1.100648,3.420088,-0.848436,-10.630294
6.670738,-0.629409,-0.316341,-0.337067,5.382208,0.272433,-12.008628
6.690844,-0.496328,-0.968658,0.772308,4.470903,-0.796344,-11.908037
6.710890,-0.918480,-0.575959,1.000292,2.836901,-1.641786,-8.986712
6.731040,-0.738492,-0.366519,0.790852,0.480201,-1.772913,-8.529862
6.751133,-1.112647,-0.329431,0.227984,1.732797,-1.229843,-9.411828
6.771526,-0.844303,-0.017453,0.015272,2.013014,-2.160906,-10.742860
6.791416,-0.895572,-0.560687,0.059996,3.863167,-1.434018,-8.192164
6.812653,-0.711222,-0.604320,0.277071,-1.029260,0.355062,-11.115286
6.832708,-1.192278,0.053451,1.027563,3.575764,2.243535,-7.907756
6.851888,-1.614430,-0.195259,1.931861,0.306563,1.854943,-7.295828
6.871873,-2.007129,0.331613,2.790345,-0.117356,2.498005,-13.749208
6.891821,-1.491166,-0.568323,2.948516,-0.074246,0.508343,-9.379495
6.911924,-1.608975,0.426515,1.760601,-1.169368,-0.887953,-3.035687
6.932006,-2.464187,0.414516,1.153008,-0.171244,-0.343685,-5.055886
6.952201,-2.725986,2.203478,0.229074,-0.959804,-0.089214,-12.298425
6.972245,-3.284491,1.828232,-0.367610,1.260379,5.869594,-9.009465
6.992341,-2.712896,1.603521,-0.505055,4.746929,9.423803,-8.461604
7.012401,-0.439605,0.685042,0.580322,7.409592,8.015532,-12.121793
7.032505,-0.647953,-0.098175,0.148353,1.208886,4.197870,-9.710008
7.052620,-0.736311,0.848666,0.081812,5.606741,2.199227,-7.973619
7.074854,-0.210530,0.115628,-0.437423,5.766010,5.780380,-10.363250
7.092820,-0.035997,0.331613,-0.329431,7.143745,4.830754,-7.038962
7.112968,-0.963204,0.730857,-0.267254,6.321055,4.836742,-6.555767
7.133113,-0.735220,-0.501782,0.261799,6.361771,6.627618,-8.952583
7.153167,-0.065450,-1.574069,1.052652,6.385122,7.082073,-9.399853
7.173199,1.722422,-3.359759,1.373356,4.748725,10.833871,-9.212443
7.193262,3.184135,-3.224496,1.712604,3.979325,9.262139,-9.299262
7.213408,4.710207,-2.988876,1.422443,-0.550854,3.560795,-5.709727
7.233466,5.316709,-1.126828,1.047198,-1.394500,2.777025,-7.334747
7.253534,4.756022,-1.771509,-0.502873,3.543431,0.347278,-9.972861
7.273725,5.826127,-3.616104,-1.009018,5.312752,-0.490380,-10.672806
7.293734,-0.457058,2.048580,1.367902,0.671803,-3.894302,-3.551814
7.313871,-0.638136,0.155989,1.451896,-2.512375,0.417931,-10.352472
7.333907,-0.346884,0.292343,0.701404,-0.580193,-3.664380,-3.770359
7.354012,0.419970,-0.127627,0.160352,0.920885,-4.572092,-13.100757
7.374134,0.338158,-0.655589,0.374155,-0.219144,-2.183659,-7.801776
7.394185,-0.239983,-0.668679,0.677406,1.550176,-2.196832,-8.406519
7.414277,-0.245437,-1.168280,0.959931,-0.580193,-2.477648,-13.435461
7.434422,-0.796306,-0.955568,1.064651,0.446671,-2.243535,-5.114564
7.454425,-0.846485,-0.484329,0.866120,-0.228126,-1.361569,-8.668174
7.474527,-0.748310,-0.160352,0.710131,-0.704136,-1.798061,-8.947793
7.494652,-1.809688,-0.447241,-0.010908,-1.992656,-0.116757,-8.686137
7.514838,-2.022400,1.515164,0.206167,1.262774,2.364483,-8.395741
7.534873,-2.648537,0.731947,0.594503,1.610052,0.220342,-3.428470
7.554901,-3.296491,2.067124,1.190096,-0.149090,3.657794,-8.917855
7.575131,-3.753549,2.828524,1.628610,0.347278,2.189647,-8.199948
7.596075,-3.612832,1.942770,1.397354,-0.704734,4.390670,-11.346405
7.616428,-3.286673,2.627811,0.771217,0.197589,5.279821,-11.027269
7.636452,-2.616903,2.320197,-0.307614,3.224894,2.855462,-7.444918
7.656157,-2.085668,2.170753,-0.411243,10.153685,8.950787,-8.629255
7.676328,0.039270,0.473421,0.407971,8.267009,4.957690,-5.598957
7.696421,0.404698,-0.220348,0.296706,7.359296,4.463718,-4.863686
7.717057,0.088357,0.155989,-0.031634,6.338419,5.412744,-8.305329
7.736601,1.143191,-1.065742,0.231256,7.210206,8.158634,-11.886482
7.757932,1.913317,-1.863139,0.605411,6.660549,6.731801,-7.176676
7.779238,2.777255,-2.174026,0.691587,4.650529,5.605543,-5.823490
7.797688,2.604904,-1.720240,0.258527,5.277426,5.444478,-6.163583
7.816971,3.226677,-1.580614,0.225802,7.958650,5.155280,-5.631290
7.836555,3.699007,-2.695443,0.478875,5.762417,3.902684,-5.514532
7.856704,5.085453,-2.950697,0.409062,2.549498,4.224216,-9.017249
7.876576,6.344272,-2.707442,-0.466876,0.291594,2.714755,-7.747289
7.896675,5.020003,-1.234820,-0.346884,-11.690689,-5.591173,-14.098282
7.917754,1.247910,0.316341,1.470440,1.774111,-0.731080,-13.716876
7.937562,2.622357,-0.328340,1.398445,-4.196673,-1.881288,-6.782695
7.957598,0.958840,0.236710,1.791144,2.053130,-1.666335,-1.231040
7.977723,1.483530,-0.115628,1.018836,1.190923,-3.725453,-8.319100
7.997825,0.769036,0.143990,0.645772,-1.147813,-4.646937,-10.754835
8.017989,-0.106901,0.306523,0.903208,2.038162,-6.567144,-8.401729
8.038090,-0.376337,0.321795,0.772308,-0.702938,-8.974138,-11.544593
8.058198,-0.424333,0.103629,-0.188714,1.094524,-6.001919,-7.201824
8.078320,-1.045016,0.306523,-0.638136,0.174238,-4.639153,-6.713240
8.098390,-1.694060,-0.453786,-0.617410,4.608616,-3.298541,-4.157155
8.118464,-1.619884,-0.849757,-0.254164,0.995729,-6.025869,-8.349637
8.138576,-2.121666,-0.245437,-0.498510,1.983675,-5.164860,-6.503077
8.158565,-3.185226,-2.114030,-0.338158,2.167493,-3.818859,-3.512296
8.181334,-3.511384,-0.571595,0.014181,-0.645458,4.739744,-15.469431
8.199847,-2.386738,1.472622,0.916298,-2.063908,4.960085,-13.552218
8.218408,-1.438806,0.989384,0.459240,-2.016008,0.413740,-5.840854
8.238496,-1.316633,0.449422,-0.126536,-0.550256,1.113085,-6.040239
8.259166,-1.494438,0.689405,-0.585776,2.121389,1.975891,-8.123906
8.279170,-1.110466,0.302160,-0.029452,5.395380,4.006269,-10.330318
8.299207,-0.513781,0.058905,0.341430,6.043832,4.236191,-9.821376
8.320445,-0.053451,-0.458149,0.424333,4.150569,2.794389,-6.920409
8.339486,-0.173442,-0.390517,0.454876,3.914659,3.172203,-10.196796
8.359587,-0.053451,-0.289070,0.275980,1.531016,0.986149,-8.923843
8.379602,-0.243255,-0.219257,0.062177,1.371747,0.885558,-7.934700
8.400859,-0.409062,-0.162534,-0.388336,0.431702,2.287842,-10.220746
8.420187,-0.379609,0.214894,-0.376337,2.389032,2.408192,-9.192085
8.440361,-0.730857,0.615229,0.047997,3.065026,0.516127,-8.154443
8.459417,-1.112647,0.342521,0.302160,2.606979,0.670007,-9.190887
8.480696,-1.356993,0.538870,0.656680,1.231040,1.072969,-8.423882
8.500400,-1.660244,0.791943,0.753764,1.210084,1.675316,-8.716075
8.520411,-1.956950,0.906480,0.666498,1.248404,2.880011,-9.159153
8.540477,-1.839141,1.173734,-0.152716,1.036445,6.254594,-9.618997
8.560570,-1.247910,1.279545,-0.548688,3.709885,6.266569,-6.962921
8.580783,-0.854121,0.949023,-0.589049,5.852829,5.354665,-8.367599
8.600808,-0.077449,-0.245437,-0.643590,8.101154,4.910988,-12.527748
8.620942,-0.213803,0.033816,-0.525780,4.846921,5.255870,-11.293116
8.641022,-0.773399,0.198531,-0.512690,2.795587,3.160228,-5.270839
8.661172,-1.167189,0.305433,-0.441786,3.703898,4.318220,-6.512657
8.681265,-0.821396,0.868301,0.571595,6.910829,7.289242,-9.888437
8.701265,0.293433,-0.605411,0.999201,5.017566,5.428911,-6.861132
8.721361,0.725402,-0.913025,1.301361,2.478246,6.649173,-6.251001
8.742009,1.231548,-0.611956,1.665699,4.822971,6.600674,-11.378139
8.761509,2.289654,-1.842413,1.304634,7.647896,6.627019,-8.131690
8.782068,4.151702,-2.682353,1.487893,6.462361,8.336464,-10.548864
8.804272,5.617779,-2.371466,1.879501,5.437892,7.886201,-6.971303
8.824028,5.881760,-3.812454,1.284999,0.871188,0.692759,0.964594
8.842275,5.374523,-3.168863,0.486511,-0.997526,1.412463,-7.244335
8.863136,4.777839,-3.902993,-1.029744,2.721341,-3.792513,-13.335469
8.882456,0.530144,-0.079631,1.136646,4.200266,-3.964955,-2.687212
8.902732,1.623156,-1.167189,1.222821,-0.926873,-2.679428,-12.147539
8.923474,-0.081812,0.052360,0.020726,1.086740,-3.523672,-2.747686
8.943403,-0.602139,-0.287979,-0.121082,-0.133522,-5.026547,-8.232281
8.964075,-1.230457,-0.429787,-0.282525,1.553769,-5.235513,-6.880891
8.981865,-1.434442,-0.296706,-0.434151,1.040636,-3.872148,-8.507708
9.002079,-1.805325,-0.227984,-0.266163,-2.135160,-2.984194,-12.374467
9.022151,-1.782417,-1.485712,0.225802,0.178429,0.758024,-12.927717
9.042211,-1.175916,-1.299179,1.057015,1.219065,1.845961,-11.330239
9.062562,-0.198531,-0.520326,1.915499,2.037563,-1.689686,-9.677675
9.082414,-0.385063,-0.178896,2.511092,2.029180,-1.137634,-8.582552
9.103969,-0.045815,0.439605,2.283109,-1.113684,-1.421444,-5.960605
9.123919,-2.054034,0.320704,0.979566,-5.525909,-0.838856,-13.330080
9.142645,-1.711513,1.416989,-0.231256,-2.184258,-0.849633,-7.562873
9.162752,-1.883865,0.626137,-0.663225,1.934577,-0.446072,-7.191046
9.182842,-2.023491,1.530436,-0.034907,3.100353,0.837658,-8.469987
9.203395,-2.934335,2.386738,0.671952,0.018561,1.707050,-9.805809
9.223089,-3.450298,3.022692,0.730857,2.045347,-0.935854,-3.978726
9.244192,-3.699007,2.286381,0.063268,0.096400,2.947670,-9.255553
9.264721,-3.311762,2.608176,-0.541052,3.246449,4.198469,-6.618636
9.284606,-3.219042,2.260201,-0.916298,5.802534,7.083270,-6.449788
9.304147,0.417788,0.130900,0.363247,11.551778,12.174483,-4.824767
9.325920,0.150535,-0.017453,0.148353,4.846921,4.922364,-5.625901
9.343705,0.524690,0.486511,-0.343612,7.445517,4.561315,-8.747809
9.363717,0.571595,0.015272,-0.332703,5.445077,3.851191,-6.849157
9.385598,-0.005454,-0.125446,-0.484329,6.736591,4.634363,-7.977810
9.404212,0.069813,-1.178097,-0.411243,8.346044,4.969067,-5.963599
9.424021,0.450513,-2.190388,0.115628,8.305928,7.650291,-5.680986
9.444150,0.583594,-2.275473,0.920661,6.811436,7.122189,-7.080875
9.464188,1.767146,-4.033892,0.728675,3.914061,5.533094,-4.760700
9.484332,3.535383,-4.165883,0.329431,1.026865,4.596641,-7.691006
9.505645,5.437791,-3.796091,0.088357,2.362687,8.777148,-10.444680
9.524488,7.041313,-3.588833,-0.009817,2.139351,5.103787,-6.925798
9.544646,5.778131,2.328924,1.150826,-19.620000,-6.837781,-19.342178
9.567799,2.294017,-2.932153,2.308198,2.088457,1.140029,-19.620000
9.585114,3.347760,0.709040,2.042035,4.769083,-1.040037,0.674797
9.604985,1.939497,0.733038,2.071488,1.365161,-2.520159,-2.444716
9.625095,0.724312,0.320704,1.625338,-1.978286,-4.381089,-11.318264
9.645083,-0.133081,0.131991,1.307906,3.057242,-5.734874,-5.569618
9.665170,-0.945750,-0.525780,1.021018,0.028740,-5.809719,-7.657476
9.685302,-1.574069,-0.639227,0.731947,-0.383203,-4.633764,-5.886359
9.705338,-1.624247,-0.019635,0.453786,0.235311,-2.811753,-8.097561
9.725446,-1.531526,-0.497419,0.798488,-2.683619,-0.811313,-15.505955
9.745502,-1.002473,-0.801761,1.209731,1.071771,0.451461,-12.096046
9.768621,-0.279253,-0.008727,1.687515,0.416135,-0.481998,-9.221424
9.786229,-0.342521,-0.235619,1.875138,-0.931064,0.656235,-9.948911
9.806695,-0.499600,-0.112356,1.516255,-0.805924,-0.189805,-7.286248
9.826144,-0.803942,0.078540,0.196350,2.504592,-3.363206,-1.639391
9.846014,-1.963495,-0.133081,-0.502873,0.523911,-1.489702,-9.284293
9.866168,-1.640609,0.055632,-0.513781,2.636917,-0.393981,-11.338621
9.886265,-1.695151,0.817032,0.278162,3.211122,2.671644,-14.176121
9.906340,-1.617702,0.290161,0.899935,1.472937,1.614243,-9.721983
9.926384,-1.180279,0.141808,1.095194,0.147892,3.188969,-11.743380
9.946506,-0.503964,-0.629409,1.060288,1.410667,-2.049538,-9.171129
9.966606,-0.542143,-0.462512,0.498510,0.462838,-0.641266,-7.964039
9.986674,-1.245729,1.002473,-0.051269,0.082628,0.185015,-5.738467
10.006820,-1.688606,1.495529,-0.390517,1.160387,0.555046,-7.623347
10.026834,-2.117303,1.184642,-0.289070,2.668052,1.189726,-8.072413
10.048133,-2.091123,1.249001,0.271617,2.092648,5.815706,-13.248051
10.067039,-1.512982,0.511600,0.297797,0.963995,4.536167,-7.504195
10.087142,-1.725694,0.676315,0.376337,2.347119,3.188370,-6.588100
10.107271,-1.984221,1.691879,-0.051269,1.581312,4.772675,-9.170530
10.127343,-1.797689,1.519527,-0.391608,3.339256,5.017566,-7.208410
10.148153,-0.187623,0.019635,-0.438514,9.483679,6.821614,-13.997692
10.167638,-0.403607,0.208349,0.129809,5.562433,4.428990,-7.904163
10.187690,-1.124647,0.649044,-0.128718,3.875740,2.272874,-4.711003
10.207769,-1.184642,-0.561778,-0.461421,5.061275,5.563630,-8.343649
10.229681,-1.534799,0.418879,0.191986,4.634363,8.028105,-9.736353
10.249709,-0.409062,-1.165007,1.343904,6.885681,7.899972,-8.951385
10.269109,0.747219,-2.151118,1.654790,1.316063,9.932745,-10.900931
10.289639,2.480549,-1.208641,2.001674,-0.589774,4.113446,-7.432943
10.308983,3.202679,-1.511891,1.450805,5.042115,7.949669,-9.142388
10.328959,4.461498,-1.761692,0.797397,7.407795,9.330397,-13.136682
10.348487,5.725771,-1.685334,0.935933,0.257465,1.332230,0.322729
10.369540,5.101816,-2.235112,0.494146,1.401685,0.013771,-2.396217
10.389823,4.416774,-3.138320,-1.159553,2.530338,-2.097438,-10.480605
10.409691,5.727952,-3.192862,-2.599450,6.427634,-2.521357,-12.094849
10.430440,2.737985,-0.760309,-1.363538,-1.433419,-4.989424,-10.121951
10.449788,-1.142100,0.163625,0.065450,1.754951,-3.437452,-2.848277
10.469057,-1.181370,-0.531235,0.083994,-5.311555,-5.661227,-15.403568
10.489045,-0.406880,-1.210822,-0.457058,2.106420,-6.835386,-4.712800
10.509164,-1.579523,-1.217367,-0.339248,-1.049019,-5.257667,-6.310278
10.529277,-2.157663,-1.303543,-0.028362,-0.006586,-3.112328,-7.832911
10.549385,-2.665990,-0.160352,0.071995,-2.002236,-1.063389,-9.627380
10.569839,-2.068215,-0.293433,0.356702,1.189726,-0.141306,-8.816067
10.589839,-1.823869,0.889027,1.590431,1.714235,4.027225,-13.629457
10.609622,-0.878119,0.235619,2.037672,-1.526226,0.891546,-10.521321
10.629801,-0.500691,-0.553051,1.824960,0.387993,-0.198188,-3.254832
10.649839,-1.454077,-0.407971,1.539162,-2.177672,0.222737,-7.247329
10.669949,-2.801253,1.510801,1.251183,-6.354586,3.651806,-11.905043
10.690005,-3.706643,1.660244,0.955568,0.362845,-0.329315,-3.296146
10.710232,-4.034983,3.187408,1.270818,0.532892,6.131250,-13.332475
10.730273,-2.463096,1.181370,1.469349,1.640588,6.677913,-19.064954
10.750315,-1.407172,1.428988,0.787580,0.980760,1.477727,-6.472540
10.770506,-2.194752,2.569997,0.317432,3.567382,0.481399,-1.600472
10.791479,-2.675808,2.168572,0.047997,5.680388,4.481680,-5.726492
10.810759,-1.449714,1.075559,-0.225802,15.929874,15.128141,-14.094690
10.830815,0.366519,0.511600,0.251982,4.528383,2.839296,-7.210206
10.850764,0.117810,0.215984,-0.250891,6.396498,2.739902,-5.367838
10.870861,0.063268,-1.110466,-0.671952,8.209528,6.568940,-9.863289
10.892941,0.836667,-1.499892,0.285798,8.723859,8.168214,-9.532178
10.911154,2.349650,-2.082396,0.176715,4.982838,7.914941,-7.594607
10.931511,3.284491,-1.853321,0.197440,4.143983,7.408394,-7.334149
10.951742,3.557199,-1.843504,-0.124355,4.840933,7.768845,-9.914782
10.971948,5.240351,-1.877320,-0.169079,4.830754,6.700666,-9.041199
10.992237,5.649413,-2.167481,-0.316341,2.615960,3.439847,-4.730762
11.012540,5.646140,-2.148937,-0.586867,1.662742,1.817820,-5.028344
11.032888,6.030113,-2.541636,-0.805033,1.667532,1.022075,-6.527626
11.053077,5.721407,-2.162027,-0.723221,-10.936857,-3.469785,-13.426479
11.073298,0.373064,0.291252,1.443169,0.235311,-5.573809,-9.751322
11.093655,1.288271,-0.511600,1.304634,-3.302133,-4.966672,-9.738149
11.114351,0.433060,0.194168,0.725402,0.628094,-7.339537,-8.089178
11.135467,-0.283616,0.763582,0.260709,2.544708,-8.173004,-6.270760
11.154633,-0.781035,-1.096285,-0.007636,0.417931,-3.633245,-4.222419
11.178417,-1.389718,-0.297797,-0.417788,-0.356259,-5.838459,-6.709048
11.195930,-2.100940,-1.913317,-0.074176,2.122586,-6.100714,-6.831793
11.215926,-2.947425,-1.221730,-0.123264,-0.960403,-4.154161,-5.032535
11.236231,-3.559381,0.020726,0.081812,-3.313510,3.682343,-17.018410
11.256501,-2.385647,1.455168,1.399536,-1.908232,6.123466,-18.820063
11.277810,-0.883573,-0.329431,1.095194,-2.338138,0.513133,-9.539962
11.297264,-0.393790,-0.526871,0.693768,-0.651445,1.754352,-5.321733
11.316931,-1.185733,0.283616,0.243255,-2.574047,1.479523,-9.516610
11.336717,-1.365720,0.327249,-0.566141,2.600991,-1.440604,-8.526270
11.356815,-1.971131,0.706858,-0.343612,0.467628,1.717229,-8.763376
11.378577,-2.385647,1.582795,0.182169,5.968389,2.680626,-9.501042
11.398307,-1.743148,0.772308,0.453786,2.946473,7.314390,-11.342813
11.417623,-0.680678,0.769036,0.850848,2.406995,4.239185,-9.527986
11.437764,-0.770127,0.893390,0.846485,3.714077,0.604144,-8.473579
11.458089,-1.259910,1.328632,0.498510,2.849474,-0.896935,-7.092252
11.478264,-1.553343,1.668971,0.118901,5.406757,0.790955,-6.107300
11.498639,-1.610066,0.431969,0.090539,2.641707,2.938090,-8.313712
11.518884,-1.643882,1.089740,-0.198531,4.383484,4.494254,-9.857900
11.539146,0.225802,-0.824668,-0.394881,6.979686,11.374547,-14.913787
11.559415,1.341722,-0.580322,0.265072,4.722979,8.192763,-7.526948
11.579563,0.398153,-0.980657,0.098175,3.938011,4.808600,-13.936020
11.599782,1.674425,-0.966476,0.239983,4.317621,3.721262,-10.626702
11.620018,1.864230,-0.659953,-0.070904,3.387755,1.830992,-7.173083
11.640437,1.728967,-1.040653,-0.525780,2.951862,0.252076,-5.959407
11.660750,2.356194,-1.550071,-0.913025,4.381688,1.001118,-12.573254
11.680961,2.653991,-1.443169,-1.185733,2.323169,1.970502,-5.894143
11.701266,1.767146,-0.991565,-0.640318,3.831432,4.859495,-8.178992
11.721436,1.958041,-1.040653,0.278162,2.103426,3.845204,-9.100475
11.741757,2.057307,-1.286089,0.267254,0.029339,0.629890,-10.056088
11.762033,2.392192,-1.444260,-0.375246,1.407074,0.559237,-9.912986
11.782241,0.378518,0.577049,0.467966,-5.067861,-7.191645,-14.695840
11.802964,-0.227984,-0.428696,1.274090,-1.641187,-0.411943,-11.887081
11.822831,0.032725,-0.107992,0.826850,-2.001638,-1.941762,-6.128855
11.842917,-0.165806,0.217075,0.272708,-0.211959,-3.332071,-10.223740
11.864257,0.032725,-0.587958,-0.339248,0.196990,-4.487668,-11.026670
11.883269,-0.221439,-0.606502,-0.537780,0.629291,-2.023792,-5.846243
11.904379,-1.072287,-0.196350,0.842121,5.528903,3.515889,-9.541159
11.926260,-0.878119,-0.826850,2.275473,1.671125,2.277664,-10.544073
11.944098,0.069813,-1.368993,2.463096,1.511257,-1.196911,-11.622431
11.964413,-0.294524,-0.879210,1.647154,-1.034050,-0.495170,-7.782616
11.984600,-0.530144,-0.361065,0.987202,-0.650847,-0.676593,-6.647377
12.004834,-1.121374,-0.077449,0.206167,-2.923720,-1.417852,-7.886201
12.025115,-1.624247,1.196641,0.087266,0.323328,-2.047143,-8.722062
12.045443,-1.934043,0.056723,-0.651226,-1.450783,2.011218,-9.962682
-68.408330,0.038179,-0.174533,0.000000,1.025068,0.864602,-9.442365
-68.396996,0.035997,-0.149444,-0.016362,0.762814,0.949026,-9.906400
-68.383869,0.038179,-0.160352,-0.014181,0.796943,0.852627,-9.444760
-68.363795,0.055632,-0.160352,-0.018544,0.673599,0.816103,-9.599837
-68.343694,0.050178,-0.161443,-0.029452,0.865800,0.962199,-9.806407
-68.323531,0.038179,-0.182169,-0.007636,0.857417,0.833467,-9.526190
-68.303540,0.049087,-0.151625,-0.020726,0.685574,0.841849,-9.655521
-68.283487,0.029452,-0.181078,-0.006545,0.398172,0.865800,-10.160870
-68.263442,0.043633,-0.129809,-0.016362,0.822689,0.972378,-9.492660
-68.243225,0.047997,-0.165806,-0.028362,0.976569,0.778381,-9.428593
-68.223141,0.044724,-0.155989,-0.011999,0.602347,0.989143,-10.060878
-68.203062,0.034907,-0.137445,-0.014181,0.598755,0.985551,-9.814191
-68.182933,0.066541,-0.140717,-0.021817,0.874182,0.761616,-9.244775
-68.162319,0.039270,-0.185441,-0.017453,0.471819,0.933459,-10.148297
-68.142234,0.018544,-0.141808,-0.023998,0.498763,1.004711,-10.102791
-68.122679,0.042542,-0.176715,-0.010908,1.096919,0.725092,-9.134604
-68.102101,0.052360,-0.197440,-0.019635,0.752036,0.868195,-9.831555
-68.082034,0.034907,-0.172351,-0.023998,0.687969,1.009501,-9.995614
-68.061898,0.046906,-0.193077,-0.008727,0.835263,0.796943,-9.332792
-68.041823,0.061087,-0.205076,-0.033816,0.662223,0.799937,-9.657318
-68.021730,0.051269,-0.147262,-0.016362,0.715512,0.978365,-9.961485
-68.001621,0.022907,-0.179987,-0.011999,0.744851,0.852627,-9.506431
-67.981541,0.038179,-0.137445,-0.025089,0.713716,0.787363,-9.532178
-67.961499,0.047997,-0.142899,-0.008727,0.872386,0.930465,-9.760902
-67.941337,0.020726,-0.165806,-0.014181,0.832269,0.903521,-9.595047
-67.921199,0.047997,-0.164715,-0.014181,0.745450,0.781974,-9.432784
-67.901174,0.057814,-0.183260,-0.008727,0.732277,0.900527,-9.814790
-67.881078,0.053451,-0.166897,-0.026180,0.860411,0.935854,-9.853709
-67.860970,0.019635,-0.203985,-0.007636,0.507744,0.764011,-9.838141
-67.840867,0.029452,-0.139626,-0.004363,0.693957,0.983754,-9.275911
-67.820784,0.039270,-0.148353,-0.009817,0.578996,0.875380,-10.034533
-67.800611,0.006545,-0.147262,-0.019635,0.564626,0.762215,-9.778266
-67.780555,0.029452,-0.169079,-0.020726,1.128653,0.953218,-9.141790
-67.760458,0.046906,-0.179987,-0.004363,0.880768,0.914299,-9.815389
-67.740392,0.035997,-0.165806,-0.010908,0.758024,0.897534,-10.070458
-67.720265,0.032725,-0.165806,-0.018544,0.874781,0.988544,-9.246572
-67.700147,0.059996,-0.231256,-0.011999,0.760419,0.826282,-9.871073
-67.680078,0.033816,-0.160352,-0.016362,0.571212,0.954415,-10.211765
-67.659998,0.046906,-0.179987,-0.038179,0.919089,0.917891,-9.219628
-67.639939,0.057814,-0.165806,0.003272,0.544867,0.725691,-9.590856
-67.619867,0.043633,-0.142899,-0.019635,0.549058,1.023272,-10.112970
-67.599715,0.020726,-0.175624,-0.016362,0.714315,0.969384,-9.869875
-67.579652,0.033816,-0.162534,-0.008727,0.541873,0.799338,-9.668694
-67.559550,0.050178,-0.152716,-0.011999,0.762814,0.977767,-9.969269
-67.539417,0.039270,-0.179987,-0.025089,0.766406,0.902922,-9.851913
-67.519344,0.046906,-0.183260,-0.011999,0.682581,0.823887,-9.492660
-67.499223,0.058905,-0.155989,-0.027271,0.685574,0.874182,-9.737551
-67.479017,0.017453,-0.167988,-0.008727,0.707728,0.937650,-9.883647
-67.459050,0.038179,-0.161443,-0.021817,0.701741,0.840652,-9.498647
-67.438912,0.050178,-0.171260,-0.029452,0.838856,0.879571,-9.748328
-67.418530,0.047997,-0.133081,-0.001091,0.775986,0.983754,-9.953701
-67.398721,0.020726,-0.161443,0.008727,0.883762,0.720901,-9.534573
-67.378632,0.063268,-0.184350,0.009817,0.987946,1.147214,-9.886042
-67.358551,0.063268,-0.171260,0.042542,0.338895,0.876577,-9.888437
-67.338483,-0.019635,-0.041452,0.070904,-0.037722,0.427511,-10.135723
-67.318413,0.067632,-0.128718,0.115628,0.419128,1.077160,-8.980724
-67.298296,0.051269,-0.073086,0.020726,0.543669,1.180146,-10.201586
-67.278167,0.066541,-0.137445,-0.087266,1.225651,0.887953,-9.932745
-67.258098,0.007636,-0.164715,0.040361,1.668730,0.604144,-9.745334
-67.237944,0.033816,-0.142899,0.077449,0.756227,0.932860,-9.536968
-67.217860,0.087266,-0.189805,-0.001091,0.304766,0.977767,-9.712403
-67.197818,-0.054542,-0.174533,-0.130900,0.227527,0.987347,-9.601035
-67.177726,0.129809,-0.165806,-0.136354,1.142424,0.926274,-9.201665
-67.157537,0.063268,-0.182169,-0.002182,1.210682,0.201780,-9.744736
-67.137442,0.000000,-0.174533,-0.003272,1.479523,1.057401,-9.679471
-67.117701,0.056723,-0.163625,0.003272,0.835263,1.093925,-9.830358
-67.097739,0.049087,-0.163625,0.023998,0.394579,0.479603,-9.955497
-67.077695,0.025089,-0.169079,-0.029452,0.235909,1.217269,-9.787846
-67.057610,0.065450,-0.165806,-0.040361,0.518522,1.030457,-9.635762
-67.037478,0.026180,-0.150535,-0.050178,1.010698,0.513732,-9.725576
-67.017472,0.016362,-0.172351,-0.009817,1.360970,1.304687,-9.670490
-66.997332,0.061087,-0.167988,0.019635,0.935255,0.938249,-9.829759
-66.977288,0.051269,-0.130900,0.009817,0.659229,0.718506,-9.574689
-66.957201,0.067632,-0.173442,-0.003272,0.920286,1.198707,-9.347761
-66.937079,0.044724,-0.173442,-0.019635,0.281415,0.581990,-9.990225
-66.916971,0.027271,-0.155989,-0.043633,0.652643,0.831671,-9.665101
-66.896874,0.026180,-0.162534,-0.001091,0.867596,1.272953,-9.705218
-66.876800,0.054542,-0.172351,0.020726,0.832269,0.714315,-9.774673
-66.856654,0.001091,-0.085085,0.086176,1.309477,1.566942,-9.915980
-66.836582,0.053451,-0.195259,0.267254,0.717308,1.055006,-9.498647
-66.816469,0.063268,-0.174533,0.057814,0.001198,0.131726,-10.093810
-66.796422,-0.011999,-0.071995,-0.121082,0.932261,0.723296,-9.833950
-66.776249,0.049087,-0.133081,0.055632,1.197510,1.156196,-9.545350
-66.756188,0.009817,-0.166897,0.067632,0.565823,0.685574,-9.539363
-66.736041,0.044724,-0.166897,0.023998,1.087938,0.664618,-9.661509
-66.716010,-0.011999,-0.172351,0.067632,0.501158,0.808319,-9.833351
-66.695761,-0.003272,-0.138536,0.046906,0.790356,1.043031,-9.390273
-66.675767,0.046906,-0.145080,0.002182,0.597557,0.933459,-9.837543
-66.655704,0.086176,-0.098175,-0.116719,0.231718,0.580792,-9.767488
-66.635544,0.005454,-0.113446,-0.159261,1.157393,1.135239,-9.912986
-66.615556,0.028362,-0.124355,0.020726,2.125580,0.763412,-8.641230
-66.595445,0.038179,-0.164715,0.027271,0.777184,1.183738,-9.878857
-66.575362,0.063268,-0.201804,-0.041452,0.864003,1.131048,-9.371113
-66.555221,0.119991,-0.230165,-0.002182,0.881367,1.021476,-9.707613
-66.535133,0.102538,-0.244346,0.033816,0.512534,1.565145,-10.339898
-66.515041,-0.058905,-0.122173,0.271617,1.608854,1.357976,-8.519084
-66.494893,0.171260,-0.470148,0.378518,-0.028740,0.996927,-10.362651
-66.474833,-0.017453,-0.065450,0.041452,0.208367,-0.569416,-8.057444
-66.454764,0.027271,-0.193077,-0.173442,1.084345,1.077759,-11.836785
-66.434680,0.045815,-0.274889,-0.019635,1.053809,0.676593,-8.198751
-66.414232,0.013090,-0.122173,0.031634,0.828078,0.914897,-10.990146
-66.394489,0.106901,-0.302160,-0.083994,0.467029,0.622106,-9.763297
-66.374462,-0.054542,-0.094902,-0.076358,0.719105,0.680784,-10.391391
-66.354385,0.050178,-0.103629,0.006545,1.123863,0.483794,-10.055490
-66.334252,-0.063268,0.034907,-0.025089,1.518442,0.020956,-8.344847
-66.313567,-0.090539,-0.022907,-0.172351,1.551973,1.722019,-10.672806
-66.293529,0.139626,-0.292343,-0.137445,0.866398,3.681145,-9.919572
-66.273457,0.327249,-0.466876,0.087266,0.921484,2.471061,-8.703501
-66.253318,0.332703,-0.437423,0.005454,-0.129331,0.320334,-11.315869
-66.233252,0.114537,-0.177805,0.021817,0.941841,-0.454455,-8.390951
-66.213138,0.011999,-0.138536,0.126536,0.716111,1.310076,-10.075248
-66.193056,-0.069813,-0.345793,0.290161,0.216749,1.844165,-8.671168
-66.172966,0.002182,-0.319613,0.411243,-0.070653,1.554368,-11.548185
-66.152847,0.025089,-0.236710,0.182169,0.504152,-1.091530,-8.993897
-66.132761,0.051269,-0.244346,-0.195259,0.889151,-0.519719,-9.897418
-66.112611,-0.089448,-0.257436,-0.255254,1.650767,0.099992,-8.666378
-66.092460,0.155989,-0.238892,-0.133081,0.501158,2.339934,-12.302617
-66.072439,-0.049087,0.085085,-0.001091,0.337698,0.761017,-10.229128
-66.052353,0.233438,-0.428696,0.009817,0.807720,-0.597557,-10.409952
-66.032223,-0.050178,-0.005454,0.399244,0.199984,-0.408950,-9.338780
-66.012209,0.273799,0.323977,0.466876,-2.339934,0.372426,-11.412867
-65.992082,-0.465785,-0.114537,0.042542,-0.858016,2.450704,-13.410912
-65.971949,0.150535,-0.210530,-0.443968,0.087418,2.151326,-6.749165
-65.951884,0.231256,0.067632,-0.171260,3.027903,3.905678,-11.599080
-65.931705,0.056723,-0.115628,0.129809,1.380130,0.077838,-10.697355
-65.911536,0.247619,-0.380700,0.014181,0.455652,-0.671204,-7.668853
-65.891561,-0.028362,-0.474511,-0.187623,-0.804727,1.428629,-10.661429
-65.871481,0.093811,-0.259618,-0.226893,0.640069,1.380130,-9.412427
-65.851461,0.023998,-0.393790,-0.166897,1.407074,0.928070,-10.985356
-65.831329,0.215984,-0.103629,0.058905,2.723137,-0.015568,-8.002958
-65.811290,0.014181,-0.046906,-0.057814,1.475931,1.139431,-10.227332
-65.791114,0.111265,-0.166897,0.009817,0.577200,1.401086,-8.750204
-65.770997,0.263981,-0.259618,0.302160,-0.647254,0.587977,-11.066786
-65.750880,-0.010908,-0.035997,0.122173,-0.301772,-0.386197,-9.707014
-65.730799,0.361065,-0.217075,0.081812,0.519120,0.558040,-10.520722
-65.710695,0.162534,-0.078540,0.431969,2.148333,-1.020278,-9.551937
-65.690621,0.025089,-0.063268,0.706858,-0.029339,-0.521516,-9.430988
-65.670531,-0.439605,-0.274889,-0.121082,-2.691403,1.678909,-12.513977
-65.650424,-0.083994,-0.102538,-0.920661,0.408351,2.171085,-9.818981
-65.630313,0.416697,0.016362,-0.621774,3.188370,3.839216,-9.524993
-65.610223,0.203985,-0.365428,-0.126536,1.293909,1.438808,-10.257270
-65.590163,0.151625,-0.166897,-0.212712,-0.204175,-0.353265,-9.553134
-65.570056,-0.014181,-0.620683,-0.292343,0.886157,-1.607058,-7.311396
-65.549965,0.032725,-0.593412,0.042542,1.997446,1.381926,-12.139755
-65.529870,-0.042542,-0.068722,0.167988,1.857936,1.950743,-8.377778
-65.509785,-0.080721,-0.088357,0.251982,2.220782,-0.681982,-9.424402
-65.489655,0.125446,-0.253073,0.170170,1.875899,-0.104183,-8.520282
-65.469561,-0.190895,-0.542143,0.292343,-0.563428,1.201102,-8.770562
-65.449541,0.370882,-0.296706,0.323977,-2.468666,1.607058,-10.551259
-65.429398,0.026180,-0.152716,0.301069,-0.622106,0.403561,-9.956695
-65.408842,0.410152,-0.049087,0.306523,0.357457,-0.099992,-9.305848
-65.389026,0.483238,0.202895,0.437423,0.332908,-0.467628,-12.755275
-65.369101,0.577049,-0.020726,0.805033,1.227448,-2.223177,-9.596245
-65.349012,-0.910844,-0.115628,0.460331,-1.110092,-0.560435,-6.627019
-65.328883,-0.494146,0.229074,-0.205076,0.040715,0.223934,-10.080637
-65.308803,0.041452,0.169079,-0.928297,1.808240,3.091371,-8.899294
-65.288747,0.349066,-0.212712,-1.094103,3.442841,2.448309,-7.349716
-65.268644,-0.016362,-0.362156,-1.197732,2.857857,2.735112,-12.474459
-65.248528,0.487601,-0.663225,-0.751582,1.780098,0.674198,-7.501800
-65.228391,0.063268,-0.353429,-0.378518,-2.883604,-1.292113,-9.034612
-65.208280,-0.301069,-0.129809,-0.131991,1.754352,-0.861608,-9.777667
-65.188164,0.258527,-0.214894,0.350157,2.038162,1.400488,-11.402089
-65.168576,-0.523599,0.038179,0.206167,0.531694,0.285606,-9.351953
-65.148482,-0.004363,-0.364337,0.099266,1.298101,1.182541,-13.363610
-65.128433,0.083994,-0.211621,0.258527,1.293909,1.236429,-7.396419
-65.108363,-0.041452,-0.652317,0.413425,3.730842,2.823129,-8.109536
-65.088314,0.398153,0.005454,0.501782,-0.658630,1.694476,-13.360018
-65.068210,0.913025,-0.884664,0.842121,-1.108295,-0.708926,-11.184741
-65.048071,0.789761,-0.434151,1.496620,0.232916,-0.787363,-13.235477
-65.027968,0.092721,-0.195259,0.896663,-0.699944,-1.601071,-4.701423
-65.007900,0.395972,0.071995,0.199622,-1.854344,-0.581391,-6.950347
-64.987773,-0.373064,1.150826,-0.801761,-1.693279,-1.032253,-4.910389
-64.967680,-0.977384,0.983929,-1.615520,-2.158511,-0.834066,-9.978250
-64.947601,0.194168,0.155989,-2.734713,7.056326,4.920568,-15.121555
-64.927522,0.992656,-1.267545,-2.387829,6.595884,1.426234,-1.456172
-64.907373,-0.066541,0.358883,-1.159553,6.765331,2.490820,-11.226654
-64.887404,0.067632,-0.158170,-0.473421,-0.021555,-2.441124,-8.258626
-64.867247,0.266163,0.050178,-0.517054,0.331710,-2.647095,-10.948233
-64.847140,-0.355611,-0.422152,-0.862847,1.545386,-1.852548,-4.799619
-64.827035,-0.616319,-0.379609,-0.527962,1.254391,1.459764,-11.632011
-64.806937,-0.520326,-0.359974,0.331613,2.936893,3.253634,-14.093492
-64.786837,-0.049087,-0.173442,0.976294,-0.099393,2.181264,-7.390432
-64.766749,-0.098175,-0.578140,0.545415,-0.679587,2.656077,-11.928395
-64.746660,1.416989,-1.738784,-0.184350,2.499802,-1.732198,-10.520123
-64.726600,1.211913,-0.976294,0.123264,-1.468746,1.184936,-9.954899
-64.706460,1.124647,0.028362,0.799579,0.419727,0.540676,-7.702982
-64.686340,0.385063,0.266163,0.667588,-2.827321,-0.574206,-9.445358
-64.666317,0.385063,0.266163,0.667588,-2.827321,-0.574206,-9.445358
-64.646228,0.385063,0.266163,0.667588,-2.827321,-0.574206,-9.445358
-64.626137,0.385063,0.266163,0.667588,-2.827321,-0.574206,-9.445358
-64.606032,0.385063,0.266163,0.667588,-2.827321,-0.574206,-9.445358
-64.585868,-0.294524,-0.006545,0.270526,3.280578,0.766406,-9.438173
-64.565795,-0.414516,0.209440,0.632682,1.584904,-0.777783,-8.871152
-64.545702,-0.702495,0.625046,0.125446,0.829874,3.201542,-10.803933
-64.525617,0.645772,-0.969749,0.220348,6.230045,2.911745,-7.656279
-64.505495,1.150826,0.748310,0.721039,-4.263135,-2.822531,-3.370990
-64.485427,-1.548980,-1.544616,0.571595,10.885963,0.077838,-14.544355
-64.465326,-0.490874,-0.484329,1.365720,3.712280,1.825005,-9.644145
-64.445230,-0.333794,-0.614138,1.278454,-0.690963,-0.085023,-6.756949
-64.425099,-0.274889,-1.211913,0.770127,-0.597557,2.008224,-16.146024
-64.404714,0.550870,-1.462804,-0.106901,-3.488346,4.018244,-18.617086
-64.384937,1.934043,-0.332703,0.357792,-0.055684,0.750240,-8.104746
-64.364855,2.106394,0.171260,0.297797,-0.666414,0.653242,-8.211324
-64.344794,1.404990,1.002473,-0.034907,-2.004033,-0.964594,-7.240743
-64.324739,-0.339248,1.093012,-0.603229,0.858016,-1.199306,0.832868
-64.304618,-0.661043,1.395173,-1.474803,-3.333268,-0.675396,-8.764574
-64.284503,-1.602430,-0.027271,-2.474004,0.300575,0.041913,-8.927435
-64.264396,-0.441786,-0.383972,-1.257728,6.101911,2.598596,-15.470629
-64.244328,-0.066541,-0.632682,-0.103629,0.484991,-0.568218,-4.278702
-64.224144,0.269435,-0.141808,-0.014181,2.870431,-2.387834,-16.511265
-64.204063,0.665407,-0.013090,-0.205076,1.346001,-1.975292,-6.344407
-64.184026,-0.844303,-0.534507,-0.330522,3.116519,-1.358575,-4.401447
-64.163946,-2.063852,-1.025381,0.634864,4.560117,0.322729,-10.585388
-64.143791,-2.051853,-2.643083,2.444552,3.375780,0.936453,-9.139395
-64.123745,-0.769036,-1.013382,3.015056,-2.220782,2.207609,-12.544514
-64.103658,1.198823,0.495237,1.938406,-8.525072,7.349716,-19.620000
-64.083551,1.670062,-1.339540,1.115920,4.862488,1.131048,-4.463119
-64.063441,2.394374,-0.553051,0.845394,0.883762,1.446592,-13.586347
-64.043379,2.687807,0.034907,0.753764,-0.854423,-0.064666,-3.205734
-64.023213,1.781327,0.193077,0.177805,-2.107617,-1.026865,-6.051017
-64.003135,0.210530,1.111557,-0.745037,-1.838177,-3.363206,-5.318740
-63.983036,-0.695950,1.619884,-1.269727,0.626896,-1.699865,0.091609
-63.962880,-3.029237,1.509710,-2.068215,3.590134,-1.907034,-2.022594
-63.942890,0.019635,-0.281434,-1.101739,6.564749,4.638554,-19.620000
-63.922745,0.224711,-0.833395,-0.421061,3.408113,-0.064666,-8.631650
-63.902659,-0.247619,-0.011999,-0.346884,1.073568,-0.986748,-2.487228
-63.882574,0.141808,-2.265656,-0.622864,0.234712,-3.087779,-11.149415
-63.862491,-1.177006,-0.349066,-0.258527,-0.187410,-2.697990,-10.696157
-63.842438,-1.656972,-2.481640,1.386446,4.461921,2.366279,-10.650652
-63.822308,-1.515164,-1.552252,2.568906,-3.460803,2.538721,-10.317744
-63.802226,0.050178,0.843212,2.439098,-5.216353,2.123784,-15.194004
-63.782176,1.559888,0.293433,1.744238,-5.259463,5.254074,-12.860057
-63.762070,2.225295,0.460331,1.757328,3.541036,3.923042,-3.650609
-63.741446,1.703878,-0.935933,0.916298,-3.891907,2.067501,-18.938617
-63.721379,2.668172,0.045815,0.634864,0.592767,0.147294,-4.345164
-63.701209,1.524981,0.311978,0.205076,0.179028,-1.131647,-2.871030
-63.681156,0.868301,1.378810,-0.621774,-1.673520,-2.772834,-4.837939
-63.661048,-1.438806,1.997311,-1.460622,1.625620,-2.500400,-1.495690
-63.640972,-2.448915,1.139918,-1.927498,2.438729,-2.974016,-8.617280
-63.620841,-0.914116,-0.268344,-1.935134,6.604266,3.764971,-19.620000
-63.600751,-0.283616,-1.030835,-0.964294,1.489103,-0.772993,-3.770359
-63.580638,-0.906480,-0.853030,-0.782126,0.315544,-0.723296,-8.923244
-63.560507,0.483238,-1.844595,-0.546506,-0.222737,-2.932701,-10.400372
-63.540411,-1.155190,-0.650135,0.428696,5.605543,0.837658,-10.052496
-63.520293,-2.055125,-2.660536,1.851140,-2.871030,1.472937,-5.894742
-63.500224,-1.413717,-1.476985,2.451097,-1.051414,3.490741,-12.913347
-63.480112,0.113446,0.652317,2.621266,-4.277505,6.665938,-17.865648
-63.460062,1.640609,-0.430878,1.298089,-5.209766,2.265090,-9.835746
-63.439918,2.241657,1.402808,1.184642,-0.963995,2.686014,-9.037007
-63.419769,1.488984,-0.675224,-0.405789,-7.731722,-0.062271,-19.620000
-63.399361,2.127120,-0.077449,-0.729766,2.712360,0.710123,-5.978568
-63.379602,1.795507,-0.075267,-0.609774,0.965193,-0.631686,0.942440
-63.359613,0.191986,2.395464,-1.223912,-4.258345,-5.345684,-5.805527
-63.339471,-1.638428,1.975495,-1.862048,1.839974,-3.136278,-2.706971
-63.319378,-1.918771,2.200206,-2.364921,-0.925675,0.772394,-19.620000
-63.299250,0.669770,-0.510509,-2.689989,6.012697,0.933459,-7.194639
-63.279167,0.190895,-1.580614,-2.434734,-2.083068,-0.815504,-4.257746
-63.259066,-0.962113,0.201804,-1.329723,0.716111,1.068179,-10.180031
-63.238964,-0.506145,-1.283908,-0.497419,2.342329,1.529220,-14.480288
-63.218895,-0.328340,0.162534,0.817032,2.982997,0.479603,-8.987311
-63.198846,-0.595594,-1.310088,1.703878,-0.788560,-0.246088,-3.465593
-63.178685,-1.510801,-0.716676,2.262383,0.607736,0.825683,-9.304052
-63.158648,-0.514872,-0.897754,2.591814,1.231040,1.759741,-14.121634
-63.138483,0.669770,-0.352338,2.194752,0.593965,3.074008,-12.134366
-63.118397,-0.139626,-1.680970,0.693768,-9.754915,5.725893,-19.620000
-63.098325,2.232931,-0.643590,-0.069813,-4.237388,0.368234,-15.045513
-63.078229,2.423826,-0.481056,-0.294524,-0.287402,1.113085,-3.099754
-63.058099,1.196641,0.680678,-0.515963,-1.513652,-0.460443,-5.460046
-63.038069,0.265072,1.888228,-1.211913,-1.500480,-1.658551,-5.164860
-63.017969,-0.693768,1.821687,-1.989675,4.225413,-3.731440,-3.185975
-62.997853,-1.190096,1.112647,-2.363830,1.978286,-2.766248,-9.941127
-62.977773,-0.859575,0.091630,-2.779437,4.139193,4.294270,-18.181192
-62.957682,0.209440,-0.557415,-1.374447,4.327800,3.001558,-5.495971
-62.937538,0.431969,-0.942478,-0.535598,4.621789,2.728526,-6.497688
-62.917431,0.178896,-1.391900,0.029452,-1.459166,-1.317859,-12.288845
-62.897340,-0.368701,-0.838849,1.031926,0.077239,0.531096,-14.714401
-62.877265,-0.928297,-0.879210,1.533708,1.000519,-0.188608,-5.774991
-62.857212,-1.084286,-1.409353,1.774782,2.559677,0.683179,-4.009263
-62.837048,-0.717767,-1.013382,2.468550,-1.354384,1.413660,-12.787608
-62.817007,1.075559,0.534507,1.895864,-8.388556,0.955613,-19.620000
-62.796912,0.638136,-0.171260,0.536689,-11.164982,6.144423,-19.620000
-62.776810,1.033017,-0.087266,-0.298888,-6.210286,0.676593,-10.335108
-62.756664,0.582504,0.734129,-0.365428,-2.305206,3.548221,-9.571097
-62.736469,0.449422,2.208932,-0.085085,0.004790,-1.780697,-8.087382
-62.716274,0.154898,2.148937,-0.712313,0.623903,-2.495012,-6.630013
-62.696351,-0.158170,-0.114537,-1.987494,4.212839,4.091891,-8.844807
-62.676184,0.616319,-0.029452,-2.080214,0.438887,2.127376,-6.698870
-62.656228,1.076650,-0.263981,-2.396555,4.278702,6.765331,-19.620000
-62.636139,0.987202,-0.789761,-1.153008,4.897216,1.972897,-8.005353
-62.616063,0.549779,-0.538870,0.110174,1.665736,-0.680784,-8.754994
-62.595921,0.835576,-0.711222,0.428696,0.554447,-1.797462,-10.145901
-62.575790,-0.550870,0.201804,0.268344,-1.486708,-2.278262,-8.563392
-62.555708,-0.568323,-0.842121,1.014473,0.683179,-0.062271,-7.746092
-62.535659,-0.831213,-1.703878,1.674425,0.270637,-1.602268,-7.062913
-62.515518,-1.276272,0.064359,2.086759,-1.035247,-1.077759,-9.602232
-62.495453,-1.023199,-1.174825,2.068215,8.215516,-0.717308,-5.181625
-62.475413,-0.585776,0.498510,1.466077,-3.300337,7.923922,-19.620000
-62.455265,0.942478,0.670861,0.760309,-3.970344,0.399968,-13.734240
-62.435152,1.389718,0.497419,0.138536,-0.735870,1.611848,-4.276906
-62.415035,1.328632,0.893390,0.005454,-2.277065,0.038919,-7.077283
-62.394554,0.654498,-0.058905,-0.285798,1.295706,-3.351231,-4.656517
-62.374803,-0.892300,1.046107,-1.183551,0.741259,-2.796784,-6.377338
-62.354752,-1.355903,2.276564,-2.038763,3.311713,-4.002676,-10.481803
-62.334673,-0.328340,-0.499600,-2.814343,5.464237,7.213799,-12.679832
-62.314575,1.539162,0.374155,-2.250384,2.298021,3.357817,-7.029382
-62.294460,1.239184,-1.785690,-2.346377,5.515730,-0.335303,0.903521
-62.274354,-0.350157,0.869392,-1.306815,-2.296225,2.575245,-19.220630
-62.254362,0.127627,-1.083195,-0.159261,0.937051,-0.956212,-10.925480
-62.234193,-0.317432,-0.505055,0.441786,1.282533,-0.084424,-6.143225
-62.214096,-1.642791,-1.649336,1.424625,3.438649,0.159868,-6.697672
-62.193963,-1.323178,-1.105012,2.096577,-2.563868,-0.737666,-13.024116
-62.173848,0.451604,-0.017453,1.771509,-6.505472,1.426833,-16.173567
-62.153845,1.620975,1.209731,1.460622,-6.737190,5.564229,-13.644426
-62.133753,0.406880,-0.779944,-0.391608,-11.543395,4.417015,-19.620000
-62.113601,0.512690,-0.998110,-0.909753,-1.304088,1.254391,-7.146140
-62.093546,0.433060,0.239983,0.134172,2.376458,-0.076042,-11.038645
-62.073449,0.436332,1.963495,0.673043,0.746049,-3.682343,-10.254276
-62.053395,-0.656680,2.472913,-0.106901,-2.712958,-2.593207,-8.629854
-62.033248,-2.040944,1.529345,-1.738784,8.769364,3.982917,-5.612130
-62.013119,0.226893,-0.683951,-2.620176,1.102308,9.195677,-19.484083
-61.992988,2.010401,0.779944,-1.906772,2.620151,2.666854,-4.119434
-61.972920,-0.038179,-2.006038,-2.338741,0.851429,2.120790,-6.815627
-61.952833,0.985020,-1.855503,-1.363538,5.694159,3.590733,-11.481125
-61.932750,0.453786,-0.086176,-0.263981,-3.130889,-1.742975,-9.684261
-61.912555,0.039270,-1.246820,0.551960,5.435497,0.034728,-13.192965
-61.892594,-0.755946,-1.448623,1.409353,-1.030457,-1.738185,-9.325009
-61.872408,-0.645772,-0.107992,1.245729,-3.020718,-1.877695,-9.902208
-61.852321,0.071995,-0.651226,1.427897,-2.590214,-0.580792,-12.475657
-61.832269,0.075267,-0.748310,1.624247,-1.898652,0.744851,-6.233637
-61.812114,-0.532325,-0.425424,1.088649,-3.160827,3.700904,-12.868440
-61.792054,-0.021817,0.269435,0.247619,0.974174,0.030536,-4.982239
-61.771952,0.352338,0.458149,0.735220,0.510139,1.675316,-9.009465
-61.751895,-0.179987,2.009310,1.292634,-0.693957,-2.233356,-11.817026
-61.731756,0.029452,1.254455,0.424333,-0.726290,-0.617316,-9.223819
-61.711632,0.189805,-0.002182,-0.957749,2.996169,2.647095,-3.581153
-61.691593,0.257436,-0.335976,-1.422443,2.984194,2.048939,-8.858578
-61.671515,0.114537,1.177006,-2.110758,4.129612,4.197272,-11.132051
-61.651359,1.983130,0.677406,-2.002765,7.205416,4.934938,-9.379495
-61.631262,1.622065,-1.596976,-1.613339,3.098557,0.216151,2.211202
-61.611241,0.979566,-1.134464,-1.539162,-5.750442,0.007784,-12.405004
-61.591135,-0.424333,-0.554142,-0.798488,12.073892,-0.770598,-16.751365
-61.571024,-0.718857,-1.483530,0.611956,2.045347,-0.371228,-6.142028
-61.550866,-0.895572,-0.713403,0.901026,-0.841251,-2.290237,-5.335505
-61.530828,-0.622864,-0.878119,1.440987,3.529660,-1.021476,-12.532538
-61.510741,-0.640318,-0.339248,2.195842,-1.687291,-1.032852,-6.451584
-61.490526,-0.231256,-0.342521,2.069306,-2.182462,0.704734,-10.068063
-61.470510,0.056723,-0.097084,0.049087,-5.882168,3.409909,-14.165942
-61.450393,-0.177805,0.189805,0.082903,2.141147,0.422122,-2.900967
-61.430270,-0.273799,1.131192,1.037380,1.376537,1.241818,-9.859098
-61.410115,-0.581413,2.255838,0.867210,-1.148412,-2.196233,-8.361013
-61.389684,0.092721,1.088649,-0.347975,2.242337,5.090614,-13.201348
-61.369905,0.225802,1.041743,-1.673334,2.256108,-1.031056,0.913700
-61.349910,-0.262890,0.654498,-2.094395,5.117558,8.593330,-12.976815
-61.329828,1.688606,-0.442877,-1.879501,7.669451,5.276827,-8.542436
-61.309733,1.436624,-1.231548,-1.641700,5.506150,0.871188,-0.517324
-61.289611,0.928297,-0.971930,-1.635155,-0.867596,3.667972,-10.648856
-61.269535,1.204277,-1.244638,-0.903208,5.010980,-0.082628,-13.933625
-61.249384,-0.394881,-0.295615,0.113446,4.370312,0.273032,-8.380772
-61.229283,-1.076650,-1.234820,1.482439,2.432741,-0.145497,-3.430865
-61.209197,-1.036289,-1.243547,1.771509,0.990939,-1.454376,-8.774154
-61.189114,-0.023998,-0.201804,2.189297,-2.788401,-1.666335,-12.967833
-61.168997,-0.605411,-0.185441,2.564543,-2.293231,0.171843,-7.738308
-61.148997,-0.822486,-2.703079,1.283908,-5.428312,0.462838,-13.810880
-61.128889,-0.018544,-0.935933,-1.253365,-1.185535,2.278861,-12.688215
-61.108758,0.593412,0.080721,-0.070904,4.242777,1.722618,-5.965994
-61.088591,0.889027,1.473712,1.217367,0.854423,0.194595,-8.265811
-61.068509,-0.029452,2.453278,0.845394,-4.487069,-0.083826,-12.722344
-61.048347,-0.573777,1.330814,-0.431969,2.186054,1.547183,-5.416935
-61.028333,0.546506,0.697041,-0.937024,4.280499,3.642226,-4.410428
-61.008237,0.366519,-0.574868,-1.289362,1.599873,2.441722,-7.826325
-60.988194,1.170461,0.198531,-1.078832,7.467671,6.106102,-13.762381
-60.968135,1.261000,-1.300270,-0.813760,6.094726,0.892145,-4.350553
-60.947980,1.560979,-2.171844,-0.667588,4.148773,-0.736469,-3.253035
-60.927836,-0.993747,0.221439,-0.067632,5.112169,0.037722,-14.782061
-60.907659,-0.042542,-1.310088,1.085377,1.259780,-1.456771,-10.875784
-60.887619,-0.519235,-0.548688,1.350449,-0.819695,-1.924398,-5.236710
-60.867541,-1.025381,0.015272,1.504256,0.320933,-1.369352,-10.778785
-60.847478,-1.315542,-1.234820,2.263474,-3.536845,0.741259,-8.984317
-60.827412,-1.614430,-1.574069,1.829323,-3.103347,-0.146096,-12.115206
-60.807281,0.625046,-1.689697,-0.225802,0.480201,0.033530,-14.421011
-60.787226,1.084286,-0.044724,0.599957,1.622626,3.115920,-7.844886
-60.767033,0.966476,1.809688,1.557706,-1.220262,1.122067,-9.495654
-60.746961,0.148353,2.116212,1.361357,-1.410667,-0.481998,-7.677235
-60.726906,0.059996,1.497711,0.847576,-1.120869,0.026944,-3.854185
-60.706872,-1.300270,1.049379,0.085085,-1.095123,0.162861,-3.872148
-60.686719,-0.187623,0.106901,-1.102830,4.572691,6.489305,-15.149696
-60.666569,1.492257,-1.034108,-1.181370,5.029541,4.825366,-9.388477
-60.646522,1.124647,-0.837758,-0.853030,3.961961,5.425318,-14.842535
-60.626422,1.342813,-1.177006,-0.160352,9.353150,1.390309,-6.509663
-60.606266,0.739583,-0.247619,-0.007636,-2.108815,-1.380729,-3.958369
-60.586193,-0.442877,-0.631591,0.631591,7.416178,-0.171843,-11.289523
-60.566164,-0.904299,-0.130900,1.724603,-0.377814,-2.909350,-9.937535
-60.546112,-1.013382,-0.459240,1.920953,-0.062271,-1.990860,-7.489226
-60.525985,-1.640609,-1.431170,2.256929,1.214874,-2.386637,-8.681347
-60.506198,-1.600249,-1.025381,2.480549,-0.933459,-0.035327,-8.462203
-60.486258,0.021817,-0.629409,0.704677,-12.507990,2.789599,-19.620000
-60.466182,1.255546,1.016654,-0.605411,3.072810,1.375340,-13.973741
-60.446097,1.449714,1.539162,0.494146,-0.038919,2.160906,-7.656877
-60.425983,0.603229,1.582795,0.357792,0.274230,-0.884960,-1.132844
-60.405963,-0.630500,1.178097,-0.187623,-1.842369,-0.079634,-4.269122
-60.385502,-1.027563,1.639519,-1.421353,-2.106420,0.580792,-5.774392
-60.365747,-0.052360,-0.673043,-2.315834,4.418212,9.319620,-19.620000
-60.345598,1.584977,-0.453786,-1.713695,5.931865,2.654879,-4.371509
-60.325518,0.915207,0.237801,-1.038471,9.015452,5.127138,-14.127621
-60.305372,1.598067,-1.401718,-0.379609,5.697751,0.868793,-9.180709
-60.285295,1.629701,-1.110466,-0.128718,-2.103426,-1.680106,-1.625620
-60.265118,-1.093012,-1.017745,0.695950,9.068143,-0.268841,-11.721226
-60.245147,-0.784307,-1.193369,1.593704,-2.342329,-3.905079,-12.360696
-60.225018,-0.728675,-0.965385,1.662426,0.150886,-1.630410,-5.607938
-60.205003,-1.126828,-0.535598,2.015855,1.712439,-0.846041,-8.429870
-60.184902,-0.234529,-0.131991,2.555817,-3.525469,0.069456,-11.285931
-60.164820,-1.930770,-2.892883,1.522800,-3.708688,1.341810,-10.782977
-60.144657,0.145080,0.082903,0.003272,-3.857778,-0.178429,-14.989230
-60.124594,1.226094,0.328340,-0.270526,2.121987,1.508264,-7.685618
-60.104521,1.074468,1.467167,0.150535,-0.451461,0.968187,-7.822733
-60.084453,0.263981,2.387829,-0.152716,-0.083826,-1.003513,-2.634521
-60.064306,-0.674133,1.509710,-0.657771,0.158670,-0.399370,0.818498
-60.044164,-0.628319,-0.100356,-1.680970,4.500242,8.097561,-15.914306
-60.024133,1.698424,0.041452,-1.398445,3.298541,4.543951,-9.735754
-60.004033,0.058905,-0.282525,-1.052652,1.704655,5.739066,-17.235758
-59.983938,1.307906,-1.249001,0.403607,3.773952,2.317181,-11.220068
-59.963862,0.945750,-1.691879,0.655589,1.823209,-0.185614,-2.880610
-59.943761,0.377427,-0.930479,0.654498,-1.119073,-0.971779,-9.580677
-59.923592,-0.442877,-1.643882,1.485712,4.054768,-2.538122,-19.620000
-59.903562,-0.269435,0.390517,1.500983,-1.165776,-2.424957,-7.661069
-59.883437,-0.832304,-0.021817,1.464986,1.454974,-0.041314,-4.111650
-59.863368,-0.926115,-1.724603,2.193661,1.888473,0.176034,-4.797823
-59.843264,-1.713695,-1.132282,2.673626,-2.077081,0.241298,-12.393029
-59.823158,-0.361065,-0.481056,0.939205,-11.605666,5.207371,-19.620000
-59.803146,1.523891,1.404990,-0.064359,2.788401,0.264650,-8.843011
-59.783019,1.527163,1.603521,0.118901,-0.981958,0.565823,-4.435576
-59.762960,-0.018544,2.046399,-0.269435,-1.093925,-1.212479,-2.913541
-59.742781,-1.002473,1.433352,-0.698132,2.377656,-0.671803,1.104104
-59.722697,-0.442877,-0.124355,-1.025381,7.242539,4.868476,-11.883488
-59.702604,0.601048,-0.969749,-0.637045,8.998687,3.394341,-10.506352
-59.682562,0.333794,-1.090831,-0.500691,4.883445,1.770518,-7.556885
-59.662430,0.930479,0.100356,-0.055632,3.403922,3.621868,-11.788885
-59.642431,1.490075,-1.727876,0.131991,1.523232,-1.096320,-3.127297
-59.622354,0.311978,-1.186824,0.021817,-0.972977,-2.694996,-6.266569
-59.602265,-0.412334,-0.761400,0.282525,1.122665,-5.304370,-16.465759
-59.582075,-0.803942,-1.396263,0.461421,0.096400,-2.779420,-6.118676
-59.561961,-2.220931,-2.710714,1.491166,2.037563,-0.114961,-5.188810
-59.541861,-2.020219,-2.039854,2.506729,-1.378932,1.896257,-11.856544
-59.521823,1.526072,2.207842,1.980949,-11.462563,2.371668,-19.620000
-59.501664,2.427098,-0.603229,0.424333,9.551338,5.081633,-3.511099
-59.481654,2.021309,1.727876,0.295615,-5.428911,2.159110,-16.732205
-59.461617,2.143482,1.346085,-0.418879,-2.289040,0.360450,-5.067263
-59.441449,1.475894,0.135263,-0.853030,0.534089,-0.704136,-1.334026
-59.421324,-0.142899,-0.401426,-1.130101,0.973575,-1.588497,-0.362247
-59.401277,-0.560687,0.169079,-1.643882,0.234113,-2.620151,-7.277866
-59.380790,-1.947133,2.729259,-3.006330,-0.276026,-1.873504,-16.542400
-59.360970,1.332995,-0.488692,-3.155773,5.984555,4.958289,-16.584911
-59.340984,0.354520,-0.349066,-2.118393,1.611848,0.583786,-2.044748
-59.320861,-0.465785,-0.495237,-1.023199,3.495531,2.143542,-9.704619
-59.300786,-0.109083,-1.317724,-0.075267,2.439926,-1.714235,-8.405920
-59.280624,-1.241365,-0.916298,1.059197,5.371430,-0.781375,-10.572814
-59.260646,-1.257728,-1.879501,2.073669,2.400408,-0.063468,-11.761941
-59.240535,-1.542435,-1.496620,3.100141,-1.422043,1.184936,-12.219988
-59.220373,-0.378518,-0.206167,2.951788,-1.060395,2.724933,-10.378817
-59.200280,1.577341,-0.033816,1.924226,-8.496332,3.102748,-16.417260
-59.180207,1.773691,-1.493347,1.024290,-0.944835,4.352349,-9.622590
-59.160122,1.904591,-0.977384,0.110174,-5.122947,2.208208,-17.960251
-59.140046,2.088941,1.209731,-0.443968,-1.593287,0.649649,-6.183342
-59.119921,0.831213,0.865029,-0.774490,1.404679,-1.343606,-0.149090
-59.099820,-0.152716,1.419171,-1.089740,1.953737,-2.426754,-1.395698
-59.079803,-1.263182,0.982839,-1.876229,3.245251,-4.481680,-7.704179
-59.059704,-1.395173,0.337067,-2.445643,3.938011,-3.033292,-11.744577
-59.039595,0.413425,0.454876,-1.984221,2.256707,4.211043,-15.188615
-59.019504,0.308705,-1.073377,-1.284999,4.064348,0.235311,-0.383802
-58.999418,-1.028653,-0.784307,-0.211621,0.080832,0.200583,-5.472021
-58.979307,-1.039562,-0.254164,0.244346,1.409469,-0.825084,-11.705658
-58.959170,-0.304342,-1.665699,0.343612,1.406475,-1.157992,-15.468832
-58.939066,-0.853030,-1.639519,1.258819,3.799698,1.402284,-7.374864
-58.918987,-2.236203,-2.150027,1.940588,0.332309,2.210603,-6.754554
-58.898925,-0.745037,-0.748310,2.336560,-5.329517,5.717510,-19.620000
-58.878813,1.792235,0.121082,1.802052,-4.006868,7.633526,-13.583353
-58.858774,3.312853,0.092721,1.143191,4.288282,1.653162,-1.333427
-58.838648,2.632175,-0.003272,-0.599957,-4.406836,3.356620,-17.988393
-58.818578,2.235112,0.706858,-0.866120,0.598156,0.014370,-1.531615
-58.798428,1.038471,-0.642499,-0.957749,1.150208,-1.344205,1.016087
-58.778396,-0.704677,2.715078,-1.502074,-1.074765,-5.992938,-6.655161
-58.758311,-2.102031,1.290453,-1.845686,3.138074,-2.029779,-2.187850
-58.738208,-1.444260,2.563452,-2.119484,-0.982557,0.692161,-18.731448
-58.718122,0.950114,-1.199914,-2.095486,5.848039,3.636238,-11.338022
-58.698023,-0.161443,-0.209440,-0.782126,-2.611170,2.548900,-10.047107
-58.677961,-0.839940,-0.207258,0.377427,2.649490,1.480122,-5.516927
-58.657872,-1.167189,-0.167988,0.937024,-1.353785,0.103585,-11.671529
-58.637619,-0.141808,-1.239184,1.166098,3.369194,2.186653,-19.620000
-58.617591,-0.337067,0.005454,1.622065,-0.160466,-0.783770,-9.048983
-58.597533,-0.520326,-1.740966,1.353721,2.864443,1.159788,-1.204695
-58.577463,-1.305724,-1.815142,1.787872,1.894460,3.109933,-10.839858
-58.557346,0.917389,0.338158,1.544616,-4.183500,5.350474,-14.394666
-58.537280,-0.213803,-2.504547,0.884664,-5.259463,4.487668,-17.980609
-58.517219,1.319905,-0.628319,0.147262,-4.740941,1.012495,-13.221107
-58.497054,1.550071,-0.217075,0.015272,-1.160986,0.871188,-4.611011
-58.476956,0.938114,1.376628,-0.131991,-3.022515,-0.489781,-8.702902
-58.456931,0.007636,0.781035,-0.850848,2.649490,-3.377576,-4.709806
-58.436839,-0.389427,0.782126,-1.519527,0.001796,-2.638713,-6.176755
-58.416644,-0.630500,0.922843,-2.445643,-1.449586,-1.098715,-8.985515
-58.396582,0.113446,0.377427,-2.386738,5.001998,8.008347,-19.371517
-58.376146,0.237801,-0.646863,-0.968658,2.694996,0.743055,-2.533332
-58.356423,-0.706858,-0.061087,0.033816,2.557282,3.390150,-10.472822
-58.336271,0.243255,-0.560687,0.298888,-1.137634,1.242416,-12.533736
-58.316138,0.050178,-0.151625,0.038179,-0.480800,-1.356779,-12.624148
-58.296093,-0.403607,-0.090539,0.362156,4.145180,0.547262,-6.052214
-58.276026,-0.901026,-1.569705,1.430079,4.485872,1.366957,-6.395301
-58.255915,-1.112647,-0.800670,2.082396,-0.623903,1.190325,-12.863650
-58.235847,-0.109083,-0.860665,1.340631,-0.678988,2.441722,-7.917935
-58.215724,0.159261,0.067632,0.651226,0.557441,3.196154,-10.668016
-58.195577,1.349358,-0.105811,-0.121082,-8.978329,1.793271,-15.976577
-58.175364,1.709332,-0.591230,-0.913025,-0.976569,0.884361,-6.144423
-58.155422,0.561778,0.366519,-0.686133,-0.396376,-0.328716,-8.551417
-58.135333,-0.014181,1.295907,-0.283616,3.390749,-4.098477,-7.184460
-58.115297,-0.963204,0.851939,-0.389427,-0.429906,-3.028502,-6.227051
-58.095179,-1.162826,1.613339,-1.445351,-1.219065,-1.701661,-7.889194
-58.074955,0.361065,0.270526,-2.538363,1.831591,11.051818,-19.620000
-58.054923,1.580614,0.073086,-2.058398,4.172124,1.681304,-3.514092
-58.034791,-0.184350,-0.186532,-1.435533,0.777184,4.176914,-7.261100
-58.014719,0.127627,-0.850848,-0.339248,1.423839,5.209766,-15.905325
-57.994658,0.717767,-0.398153,-0.236710,-0.311353,-2.287244,-9.885443
-57.974573,-0.727584,0.465785,-0.063268,2.574646,0.056882,-8.732840
-57.954539,-0.723221,-1.640609,1.257728,4.751120,1.235231,-5.913902
-57.934400,-0.560687,-0.498510,1.891501,-1.450783,0.180225,-11.772120
-57.914297,0.050178,0.645772,1.977676,-2.116000,0.558638,-10.414144
-57.894244,0.587958,-0.553051,1.586068,-5.886359,1.580713,-11.796070
-57.874168,-0.597775,-1.638428,0.254164,-10.577604,2.351909,-19.177520
-57.854033,0.695950,-2.234021,-0.676315,-4.884044,0.093406,-8.735235
-57.833777,0.071995,0.861756,-0.428696,1.138832,-0.734672,-11.933185
-57.813828,0.438514,1.926407,0.769036,3.302133,-2.506388,-8.741223
-57.793750,-0.605411,1.125737,0.846485,1.314866,-3.027903,-5.424120
-57.773659,-1.518436,1.053743,0.172351,5.010980,2.056723,-5.163063
-57.753589,0.735220,-0.282525,-1.010109,-1.011297,6.797065,-16.134049
-57.733552,-0.047997,0.331613,-0.932660,2.532733,4.867278,-9.432784
-57.713436,0.116719,-0.041452,-0.344703,2.142345,5.361251,-9.701027
-57.693332,0.488692,-0.719948,0.148353,2.610571,5.614525,-11.302097
-57.673234,1.775873,-2.112939,0.498510,1.784290,3.028502,-6.433621
-57.653142,-0.004363,0.930479,1.497711,9.070538,-1.170566,-8.998687
-57.633021,0.556324,0.214894,1.215185,-0.595761,-1.946552,-8.183782
-57.612911,0.633773,0.183260,1.021018,1.293311,-0.853824,-8.863967
-57.592866,-0.026180,-0.140717,0.779944,-2.134561,-2.296225,-7.431746
-57.572814,-2.001674,-1.995130,0.125446,0.155676,-2.997966,-6.943760
-57.552720,-2.522001,-1.586068,0.246528,-5.544470,-1.416055,-10.445878
-57.532583,-1.391900,-0.689405,0.050178,-5.740263,0.027543,-19.620000
-57.512510,0.165806,0.461421,0.334885,5.521718,1.487906,-9.665101
-57.492387,-0.109083,0.859575,1.685334,2.417772,2.441722,-10.615924
-57.472290,-0.244346,0.855211,1.747511,-1.741179,1.190325,-9.945917
-57.452145,0.581413,0.206167,0.728675,1.142424,4.804409,-9.422606
-57.432080,-0.616319,0.932660,-0.018544,-2.221381,2.106420,-13.432467
-57.411909,-0.125446,0.704677,-0.889027,1.556763,2.941683,-7.861652
-57.391870,-0.208349,0.441786,-1.173734,3.828439,2.936294,-2.999163
-57.371484,0.750492,-0.658862,-0.921752,4.442162,5.551057,-10.812316
-57.351741,1.652609,-1.892591,-0.601048,2.263293,2.437531,-5.794151
-57.331637,2.503457,-0.957749,-0.254164,-0.029938,3.279380,-11.498489
-57.311514,0.171260,1.475894,1.067923,14.119239,-1.944756,-15.821499
-57.291449,0.079631,-0.218166,1.604612,-0.084424,-1.860930,-3.352429
-57.271332,-0.326158,-0.763582,1.299179,4.207451,-2.053729,-5.346881
-57.251219,-0.961022,-0.561778,0.963204,-1.645977,-2.905757,-8.819061
-57.231100,-1.851140,-1.387537,0.917389,2.214794,-2.265688,-8.305928
-57.211056,-2.271110,-2.030036,1.373356,-1.962120,-0.942440,-8.012538
-57.190995,-0.663225,-1.123556,0.870483,-3.589536,1.390309,-19.620000
-57.170907,0.261799,-0.495237,0.353429,0.901126,-0.219144,-10.569820
-57.150797,-0.079631,1.472622,0.788671,-1.457369,1.384321,-9.951905
-57.130710,-0.874846,2.855795,0.525780,-3.363805,0.287402,-9.784254
-57.110579,0.070904,1.782417,-0.585776,-3.142266,5.586982,-17.971029
-57.090528,-0.198531,1.364629,-1.276272,1.325045,2.781216,-3.717070
-57.070396,0.112356,0.644681,-1.463895,4.543352,9.313632,-11.718232
-57.050313,1.643882,-0.666498,-1.612248,6.615044,7.028784,-7.813152
-57.030236,2.974696,-1.833687,-1.386446,4.020040,2.421964,-4.115841
-57.010174,3.409937,-1.900227,-1.063560,4.262536,1.713038,-3.094964
-56.990059,-0.349066,1.497711,0.038179,11.387120,1.848955,-19.620000
-56.969990,0.033816,-0.018544,0.958840,-2.659070,-0.882565,-7.294631
-56.949865,-0.009817,0.446150,1.095194,-1.243614,-1.799857,-7.000043
-56.929790,-1.291544,-1.290453,0.859575,3.423082,-4.179309,-10.565030
-56.909644,-2.350740,-1.122465,1.247910,-0.339494,-1.790277,-4.915179
-56.889582,-1.895864,-2.808889,1.747511,1.593885,0.279020,-9.872869
-56.869503,-0.882482,-0.782126,1.532617,-7.989186,-0.814905,-19.620000
-56.849457,0.589049,-0.095993,-0.157080,0.210163,2.187252,-11.189531
-56.829318,0.282525,1.179188,0.607593,0.933459,3.594924,-7.300618
-56.809228,-0.397062,2.192570,0.779944,-2.511777,0.180225,-6.977291
-56.789173,-0.095993,1.962405,0.087266,-3.626060,1.355581,-10.645862
-56.769106,0.811578,2.127120,-0.534507,0.972378,0.193997,0.461640
-56.748963,0.037088,-0.771217,-1.425716,1.948348,9.092692,-16.353792
-56.728842,1.430079,-0.714494,-1.254455,6.563551,6.039641,-7.180269
-56.708803,1.408263,-1.709332,-1.108284,7.574848,3.327880,-9.255553
-56.688653,2.165299,-2.016946,-0.610865,8.852591,1.177751,-9.714798
-56.668572,0.844303,0.099266,-0.110174,0.562231,-1.975891,-10.132130
-56.648504,-0.117810,-1.136646,0.878119,3.540438,0.352068,-9.322015
-56.628307,-0.796306,-1.254455,1.181370,-1.787283,-1.098715,-4.402046
-56.608245,-0.473421,-0.202895,1.234820,0.791554,-1.695674,-8.911868
-56.588169,-1.074468,-1.893682,1.576250,5.195995,-5.566025,-11.538605
-56.568125,-2.198024,-2.725986,1.944951,0.940644,0.917891,1.293311
-56.548001,-1.810779,-1.807507,1.735512,2.555486,-1.360970,-5.885162
-56.527858,-0.377427,0.449422,0.802851,-7.874225,-0.564626,-19.620000
-56.507765,0.640318,3.009602,0.582504,-3.326682,6.378536,-19.579883
-56.487678,0.754855,3.219042,0.623955,-1.272354,0.674797,-4.016448
-56.467530,1.403899,2.121666,-0.031634,-5.727090,2.714156,-13.283976
-56.447510,1.209731,0.851939,-0.555233,1.804048,-0.952619,2.900369
-56.427406,-0.410152,0.181078,-1.034108,3.090174,-0.212558,2.228566
-56.407338,-0.042542,-0.939205,-1.620975,-1.396296,13.743820,-19.620000
-56.387230,2.076942,-1.340631,-1.167189,5.440886,5.877977,-10.139914
